index,timestamp,orientation_x,orientation_y,orientation_z,orientation_w,gyroscope_x,gyroscope_y,gyroscope_z,acceleration_x,acceleration_y,acceleration_z
0,1596984119625756,0.12103271484375,0.13043212890625,0.56658935546875,0.80450439453125,5.5625,3.5,-7.4375,-0.08349609375,0.359375,0.92919921875
1,1596984119647752,0.120849609375,0.13134765625,0.56561279296875,0.8050537109375,1.375,3.0625,-7.0625,-0.08251953125,0.349609375,0.92041015625
2,1596984119664754,0.12017822265625,0.131591796875,0.5648193359375,0.8056640625,-0.9375,1.75,-5.75,-0.0830078125,0.3134765625,0.9033203125
3,1596984119685755,0.11981201171875,0.1318359375,0.56414794921875,0.80615234375,0.625,1.5,-5.1875,-0.07421875,0.3115234375,0.9033203125
4,1596984119707752,0.12017822265625,0.1328125,0.56329345703125,0.80657958984375,5.25,2.625,-5.6875,-0.07568359375,0.3251953125,0.8974609375
5,1596984119733753,0.1201171875,0.13385009765625,0.56256103515625,0.806884765625,2.6875,3.5625,-5.1875,-0.08447265625,0.337890625,0.89990234375
6,1596984119752751,0.11956787109375,0.13427734375,0.5618896484375,0.807373046875,-1.75,1.9375,-5.1875,-0.091796875,0.34033203125,0.88623046875
7,1596984119767751,0.11865234375,0.134033203125,0.56134033203125,0.80792236328125,-6.375,0.9375,-4.9375,-0.08251953125,0.34619140625,0.8837890625
8,1596984119785753,0.116943359375,0.13287353515625,0.56085205078125,0.8087158203125,-11.25,-1.9375,-4.75,-0.09423828125,0.30810546875,0.87841796875
9,1596984119805751,0.115234375,0.131591796875,0.56048583984375,0.8094482421875,-10.9375,-2.9375,-3.75,-0.103515625,0.2861328125,0.8720703125
10,1596984119827752,0.114990234375,0.13079833984375,0.55999755859375,0.8099365234375,-1.625,-3.875,-3.25,-0.08349609375,0.28271484375,0.88818359375
11,1596984119845751,0.11614990234375,0.13128662109375,0.55908203125,0.810302734375,8.6875,-2.25,-5.0625,-0.078125,0.30419921875,0.8984375
12,1596984119865754,0.11749267578125,0.132080078125,0.5582275390625,0.81060791015625,8.8125,-1.8125,-4.1875,-0.08544921875,0.3349609375,0.9169921875
13,1596984119887751,0.118408203125,0.1324462890625,0.5577392578125,0.81072998046875,4.375,-1.6875,-2.3125,-0.083984375,0.35693359375,0.92724609375
14,1596984119905753,0.11798095703125,0.1319580078125,0.5577392578125,0.81085205078125,-3.9375,-0.75,-0.4375,-0.08251953125,0.34228515625,0.943359375
15,1596984119925753,0.1158447265625,0.13018798828125,0.5582275390625,0.81109619140625,-14.4375,-3.125,1.5625,-0.10400390625,0.2939453125,0.90283203125
16,1596984119947751,0.1134033203125,0.12799072265625,0.55865478515625,0.8115234375,-15.8125,-5.6875,1.625,-0.126953125,0.2568359375,0.87255859375
17,1596984119965753,0.11322021484375,0.126220703125,0.5584716796875,0.81195068359375,-4.125,-9.375,-0.3125,-0.0927734375,0.26806640625,0.888671875
18,1596984119986752,0.1153564453125,0.12603759765625,0.5574951171875,0.81231689453125,10.25,-8.0625,-4.25,-0.068359375,0.310546875,0.92431640625
19,1596984120010752,0.11859130859375,0.1275634765625,0.55645751953125,0.8123779296875,16.875,0.1875,-5.6875,-0.0146484375,0.40576171875,0.9794921875
20,1596984120040753,0.1192626953125,0.128662109375,0.556640625,0.81195068359375,0.6875,7.5,0.125,-0.02099609375,0.447265625,0.9921875
21,1596984120045752,0.11572265625,0.127685546875,0.55755615234375,0.81201171875,-24.4375,6.0,2.3125,-0.10009765625,0.404296875,0.96875
22,1596984120067751,0.10943603515625,0.123779296875,0.55865478515625,0.81268310546875,-42.5625,-2.6875,2.5,-0.142578125,0.2822265625,0.86669921875
23,1596984120085751,0.10516357421875,0.1195068359375,0.559326171875,0.8134765625,-28.25,-8.5625,1.375,-0.10009765625,0.1650390625,0.80224609375
24,1596984120105753,0.10546875,0.1190185546875,0.55914306640625,0.8135986328125,8.125,-2.0,-0.4375,-0.04833984375,0.1708984375,0.921875
25,1596984120127752,0.11016845703125,0.1224365234375,0.55841064453125,0.81298828125,33.3125,2.25,-0.9375,-0.05908203125,0.318359375,0.94775390625
26,1596984120147753,0.11322021484375,0.12481689453125,0.55816650390625,0.8123779296875,15.75,1.5625,0.8125,-0.0771484375,0.42626953125,0.95361328125
27,1596984120165751,0.11181640625,0.1234130859375,0.55877685546875,0.8123779296875,-15.125,-1.5625,2.5625,-0.07568359375,0.3818359375,0.9619140625
28,1596984120187757,0.10821533203125,0.12017822265625,0.55975341796875,0.81268310546875,-25.6875,-3.0,3.0625,-0.0712890625,0.2705078125,0.9404296875
29,1596984120205752,0.10662841796875,0.1185302734375,0.5601806640625,0.8128662109375,-8.8125,-1.9375,1.4375,-0.06591796875,0.244140625,0.9599609375
30,1596984120232752,0.107421875,0.11883544921875,0.56005859375,0.812744140625,6.625,-0.6875,0.25,-0.0712890625,0.28515625,0.95751953125
31,1596984120247752,0.108642578125,0.11968994140625,0.55999755859375,0.8125,7.0625,0.0625,0.375,-0.07373046875,0.33740234375,0.95556640625
32,1596984120265754,0.10858154296875,0.11956787109375,0.56024169921875,0.8123779296875,-2.8125,-0.3125,1.625,-0.07373046875,0.33984375,0.95556640625
33,1596984120286751,0.107666015625,0.11871337890625,0.56060791015625,0.81231689453125,-6.8125,-1.0,1.9375,-0.07421875,0.30078125,0.93994140625
34,1596984120310754,0.10723876953125,0.1182861328125,0.5609130859375,0.81231689453125,-1.75,-0.25,1.375,-0.0712890625,0.27734375,0.94140625
35,1596984120333751,0.107666015625,0.1187744140625,0.5609130859375,0.8121337890625,4.0625,0.9375,0.625,-0.07080078125,0.2998046875,0.94482421875
36,1596984120346752,0.10809326171875,0.119384765625,0.5609130859375,0.81201171875,3.3125,1.4375,0.1875,-0.07421875,0.318359375,0.9404296875
37,1596984120367751,0.108154296875,0.11944580078125,0.5609130859375,0.81201171875,-0.3125,0.875,-0.0625,-0.0732421875,0.32275390625,0.93359375
38,1596984120386750,0.1075439453125,0.11920166015625,0.56103515625,0.81201171875,-3.875,1.5,0.0625,-0.064453125,0.3115234375,0.94091796875
39,1596984120406754,0.1068115234375,0.11895751953125,0.56121826171875,0.81201171875,-4.3125,1.1875,0.3125,-0.0751953125,0.2978515625,0.93798828125
40,1596984120427751,0.10662841796875,0.119140625,0.56121826171875,0.81201171875,-0.0625,1.4375,0.0,-0.07080078125,0.2998046875,0.93115234375
41,1596984120445752,0.1064453125,0.11932373046875,0.56121826171875,0.81201171875,-0.3125,1.4375,-0.375,-0.0732421875,0.29931640625,0.927734375
42,1596984120466752,0.10614013671875,0.11944580078125,0.56121826171875,0.81207275390625,-1.0625,1.4375,-0.375,-0.076171875,0.30029296875,0.93505859375
43,1596984120487751,0.10565185546875,0.11944580078125,0.561279296875,0.81201171875,-1.6875,1.6875,0.1875,-0.0751953125,0.29052734375,0.931640625
44,1596984120505753,0.10546875,0.11962890625,0.5614013671875,0.81195068359375,-0.1875,1.5,0.3125,-0.07568359375,0.29638671875,0.93017578125
45,1596984120526751,0.10565185546875,0.1199951171875,0.5614013671875,0.8118896484375,1.5,1.1875,0.125,-0.07421875,0.30859375,0.92724609375
46,1596984120547750,0.10552978515625,0.12017822265625,0.56146240234375,0.81182861328125,-0.25,1.25,0.125,-0.0771484375,0.30517578125,0.935546875
47,1596984120565754,0.10546875,0.1202392578125,0.56146240234375,0.81182861328125,0.375,0.8125,0.25,-0.0869140625,0.296875,0.9267578125
48,1596984120588751,0.10546875,0.1202392578125,0.56146240234375,0.81182861328125,0.1875,0.25,-0.125,-0.08447265625,0.30517578125,0.921875
49,1596984120610753,0.10516357421875,0.12030029296875,0.56146240234375,0.8118896484375,-1.875,0.5,-0.1875,-0.0859375,0.30712890625,0.93017578125
50,1596984120631753,0.10479736328125,0.1202392578125,0.5614013671875,0.81195068359375,-1.75,0.5,-0.5625,-0.08251953125,0.29443359375,0.931640625
51,1596984120648755,0.10479736328125,0.1202392578125,0.5614013671875,0.81195068359375,0.25,0.1875,-0.5625,-0.07763671875,0.29296875,0.92822265625
52,1596984120667753,0.104736328125,0.1202392578125,0.5614013671875,0.81195068359375,0.125,0.125,-0.0625,-0.07763671875,0.29736328125,0.93408203125
53,1596984120685752,0.104736328125,0.1202392578125,0.5614013671875,0.81195068359375,-0.5,0.125,-0.3125,-0.08251953125,0.29833984375,0.935546875
54,1596984120708759,0.104736328125,0.12030029296875,0.5614013671875,0.81195068359375,-0.1875,0.25,-0.3125,-0.08349609375,0.3046875,0.94140625
55,1596984120727752,0.104736328125,0.12030029296875,0.5614013671875,0.81195068359375,-0.4375,-0.25,-0.5,-0.07763671875,0.306640625,0.92919921875
56,1596984120750752,0.1046142578125,0.12017822265625,0.5614013671875,0.81201171875,-1.0625,-0.3125,0.0,-0.078125,0.2998046875,0.9326171875
57,1596984120768751,0.1046142578125,0.1201171875,0.5614013671875,0.81201171875,-0.4375,0.0625,0.1875,-0.07568359375,0.29345703125,0.93408203125
58,1596984120787751,0.1046142578125,0.1201171875,0.5614013671875,0.81201171875,-0.0625,0.5,-0.25,-0.07861328125,0.29443359375,0.939453125
59,1596984120810751,0.1046142578125,0.1201171875,0.5614013671875,0.81201171875,0.1875,0.375,-0.75,-0.076171875,0.2978515625,0.9306640625
60,1596984120828753,0.1046142578125,0.1201171875,0.5614013671875,0.81201171875,-0.5625,0.8125,-0.75,-0.07421875,0.2978515625,0.9404296875
61,1596984120849750,0.10443115234375,0.1201171875,0.5614013671875,0.81207275390625,-1.125,0.3125,-0.375,-0.07958984375,0.30322265625,0.93408203125
62,1596984120870752,0.1041259765625,0.1199951171875,0.5614013671875,0.81207275390625,-1.75,-0.125,0.0625,-0.08251953125,0.29931640625,0.93310546875
63,1596984120889753,0.10382080078125,0.11993408203125,0.56146240234375,0.81207275390625,-1.4375,0.3125,0.125,-0.08056640625,0.2890625,0.9267578125
64,1596984120907750,0.10382080078125,0.11993408203125,0.56146240234375,0.81207275390625,0.3125,0.4375,-0.25,-0.08203125,0.2919921875,0.93212890625
65,1596984120930751,0.10394287109375,0.1202392578125,0.56134033203125,0.8121337890625,1.625,0.375,-0.5625,-0.0849609375,0.29931640625,0.9306640625
66,1596984120948753,0.10394287109375,0.1202392578125,0.56134033203125,0.8121337890625,0.9375,0.1875,-0.6875,-0.0791015625,0.30322265625,0.93994140625
67,1596984120967751,0.103759765625,0.1201171875,0.561279296875,0.81219482421875,-2.0,-0.0625,-0.625,-0.0791015625,0.30615234375,0.92919921875
68,1596984120990755,0.103271484375,0.11981201171875,0.561279296875,0.81231689453125,-2.75,-0.1875,-0.375,-0.0791015625,0.28759765625,0.93310546875
69,1596984121008754,0.103271484375,0.11981201171875,0.561279296875,0.81231689453125,-0.625,0.0,-0.625,-0.080078125,0.28466796875,0.93017578125
70,1596984121029753,0.103271484375,0.119873046875,0.56121826171875,0.8123779296875,1.0,-0.125,-0.5,-0.0810546875,0.29150390625,0.93896484375
71,1596984121050755,0.103271484375,0.119873046875,0.56121826171875,0.8123779296875,0.25,-0.3125,0.0,-0.0859375,0.29541015625,0.9345703125
72,1596984121068752,0.103271484375,0.119873046875,0.56121826171875,0.8123779296875,-0.625,-0.375,-0.0625,-0.08349609375,0.298828125,0.939453125
73,1596984121087752,0.103271484375,0.119873046875,0.56121826171875,0.8123779296875,-0.6875,0.1875,-0.1875,-0.07861328125,0.2919921875,0.927734375
74,1596984121110751,0.10321044921875,0.1201171875,0.56121826171875,0.81231689453125,0.5625,1.0625,-0.0625,-0.080078125,0.29345703125,0.93505859375
75,1596984121128759,0.10321044921875,0.12030029296875,0.56121826171875,0.812255859375,1.25,0.75,0.3125,-0.08203125,0.2900390625,0.93994140625
76,1596984121147756,0.1031494140625,0.12030029296875,0.56121826171875,0.812255859375,0.6875,0.1875,0.5,-0.08544921875,0.29833984375,0.9384765625
77,1596984121170754,0.10321044921875,0.12030029296875,0.56121826171875,0.812255859375,-0.5625,0.1875,0.125,-0.0810546875,0.30126953125,0.931640625
78,1596984121188752,0.102783203125,0.1202392578125,0.561279296875,0.81231689453125,-1.375,0.5,0.0,-0.08447265625,0.2861328125,0.9443359375
79,1596984121207753,0.10272216796875,0.1202392578125,0.561279296875,0.81231689453125,0.125,-0.0625,-0.0625,-0.08349609375,0.29150390625,0.939453125
80,1596984121230752,0.102783203125,0.1202392578125,0.561279296875,0.81231689453125,0.25,0.25,0.125,-0.07666015625,0.298828125,0.92529296875
81,1596984121248754,0.10260009765625,0.1202392578125,0.56134033203125,0.812255859375,-1.125,0.375,0.375,-0.080078125,0.30078125,0.93115234375
82,1596984121269752,0.10260009765625,0.1202392578125,0.56134033203125,0.812255859375,-0.8125,0.125,0.125,-0.0830078125,0.29443359375,0.93408203125
83,1596984121290753,0.10272216796875,0.12030029296875,0.56134033203125,0.812255859375,1.125,-0.25,0.1875,-0.08251953125,0.2939453125,0.93701171875
84,1596984121308751,0.10272216796875,0.12030029296875,0.56134033203125,0.812255859375,0.5625,-0.3125,0.125,-0.0771484375,0.29443359375,0.9296875
85,1596984121329755,0.1029052734375,0.12042236328125,0.56134033203125,0.812255859375,1.0625,0.0,-0.125,-0.07861328125,0.29833984375,0.93115234375
86,1596984121350754,0.102783203125,0.12042236328125,0.561279296875,0.812255859375,-1.1875,0.0625,-0.25,-0.0849609375,0.30419921875,0.93701171875
87,1596984121372752,0.1025390625,0.120361328125,0.561279296875,0.81231689453125,-1.0625,0.1875,-0.25,-0.080078125,0.29345703125,0.939453125
88,1596984121395755,0.1025390625,0.120361328125,0.561279296875,0.81231689453125,0.1875,0.375,-0.3125,-0.08154296875,0.29541015625,0.9365234375
89,1596984121417750,0.10247802734375,0.120361328125,0.561279296875,0.81231689453125,0.125,-0.0625,-0.5,-0.08935546875,0.2939453125,0.93701171875
90,1596984121428753,0.10247802734375,0.120361328125,0.561279296875,0.81231689453125,0.1875,0.0625,-0.5,-0.0859375,0.29833984375,0.9375
91,1596984121449752,0.10247802734375,0.120361328125,0.561279296875,0.81231689453125,0.375,0.25,-0.4375,-0.080078125,0.29833984375,0.93896484375
92,1596984121470755,0.10247802734375,0.120361328125,0.561279296875,0.81231689453125,0.625,0.5,0.125,-0.08349609375,0.29443359375,0.935546875
93,1596984121488751,0.1025390625,0.12060546875,0.56121826171875,0.81231689453125,1.3125,0.75,-0.375,-0.080078125,0.2958984375,0.943359375
94,1596984121509753,0.1025390625,0.12060546875,0.56121826171875,0.81231689453125,0.6875,0.5625,-0.75,-0.08935546875,0.2998046875,0.9384765625
95,1596984121530751,0.1025390625,0.12066650390625,0.56121826171875,0.81231689453125,-0.9375,-0.3125,-0.5,-0.08935546875,0.298828125,0.93701171875
96,1596984121549751,0.1025390625,0.12066650390625,0.56121826171875,0.81231689453125,-0.4375,-0.25,-0.6875,-0.08447265625,0.298828125,0.93505859375
97,1596984121570750,0.10247802734375,0.12066650390625,0.56121826171875,0.81231689453125,-0.9375,0.8125,-0.75,-0.087890625,0.28564453125,0.93603515625
98,1596984121590754,0.10247802734375,0.12066650390625,0.56121826171875,0.81231689453125,0.5,0.9375,-0.75,-0.08349609375,0.2890625,0.92822265625
99,1596984121608752,0.10247802734375,0.12066650390625,0.56121826171875,0.81231689453125,-0.25,0.8125,-0.25,-0.0908203125,0.2998046875,0.93115234375
