index,timestamp,orientation_x,orientation_y,orientation_z,orientation_w,gyroscope_x,gyroscope_y,gyroscope_z,acceleration_x,acceleration_y,acceleration_z
0,1597858299505395,-0.10498046875,0.01470947265625,-0.94134521484375,-0.3204345703125,0.25,0.0,0.125,0.1923828125,0.02978515625,0.96875
1,1597858299524396,-0.10498046875,0.01446533203125,-0.94134521484375,-0.32049560546875,1.375,-0.125,-0.5625,0.1982421875,0.03369140625,0.97021484375
2,1597858299546396,-0.10498046875,0.014404296875,-0.9412841796875,-0.32061767578125,0.5625,-0.125,-1.0625,0.2021484375,0.0361328125,0.96728515625
3,1597858299564398,-0.10498046875,0.01434326171875,-0.9412841796875,-0.32061767578125,-0.5,0.375,-1.0,0.2001953125,0.048828125,0.9658203125
4,1597858299584395,-0.10467529296875,0.01446533203125,-0.9412841796875,-0.32073974609375,-1.4375,0.875,-0.4375,0.19384765625,0.04150390625,0.962890625
5,1597858299606397,-0.1043701171875,0.01458740234375,-0.94134521484375,-0.32073974609375,-0.5,1.25,-0.0625,0.19873046875,0.0283203125,0.95703125
6,1597858299624395,-0.1041259765625,0.0145263671875,-0.94134521484375,-0.3206787109375,0.6875,1.3125,0.1875,0.20068359375,0.02880859375,0.9560546875
7,1597858299644397,-0.10406494140625,0.01409912109375,-0.94140625,-0.32073974609375,1.5,0.8125,-0.3125,0.1962890625,0.044921875,0.9521484375
8,1597858299666395,-0.10400390625,0.01434326171875,-0.94134521484375,-0.3209228515625,-1.5,0.3125,-0.9375,0.20263671875,0.03857421875,0.953125
9,1597858299684396,-0.1038818359375,0.01495361328125,-0.94122314453125,-0.32110595703125,-3.6875,-0.25,-0.9375,0.20556640625,0.0341796875,0.94873046875
10,1597858299704397,-0.1038818359375,0.01531982421875,-0.94122314453125,-0.32110595703125,-1.625,-0.0625,0.1875,0.20703125,0.0341796875,0.95068359375
11,1597858299726396,-0.1038818359375,0.01531982421875,-0.94122314453125,-0.32110595703125,0.25,0.3125,0.4375,0.20361328125,0.03466796875,0.9541015625
12,1597858299744396,-0.1038818359375,0.01531982421875,-0.94122314453125,-0.32110595703125,0.1875,0.3125,0.5,0.1962890625,0.03369140625,0.9521484375
13,1597858299764398,-0.10382080078125,0.01531982421875,-0.9412841796875,-0.32110595703125,-0.5,-0.0625,0.9375,0.1923828125,0.033203125,0.9619140625
14,1597858299786396,-0.10382080078125,0.01531982421875,-0.9412841796875,-0.32110595703125,-0.25,-0.3125,0.75,0.1953125,0.03662109375,0.96630859375
15,1597858299804396,-0.10382080078125,0.0152587890625,-0.9412841796875,-0.32110595703125,-0.625,0.375,0.1875,0.1953125,0.04296875,0.958984375
16,1597858299824398,-0.10369873046875,0.01544189453125,-0.9412841796875,-0.321044921875,-1.1875,-0.25,0.25,0.19384765625,0.0361328125,0.96533203125
17,1597858299846396,-0.1036376953125,0.0157470703125,-0.9412841796875,-0.321044921875,-1.25,-0.4375,0.25,0.1953125,0.02978515625,0.9619140625
18,1597858299864396,-0.10357666015625,0.0157470703125,-0.9412841796875,-0.321044921875,-0.5,-0.4375,0.1875,0.189453125,0.03466796875,0.96435546875
19,1597858299885396,-0.10345458984375,0.0159912109375,-0.9412841796875,-0.321044921875,-1.0625,-0.3125,0.0,0.19580078125,0.0283203125,0.9599609375
20,1597858299906397,-0.103515625,0.0159912109375,-0.9412841796875,-0.321044921875,-0.1875,0.375,-0.0625,0.205078125,0.03271484375,0.962890625
21,1597858299924397,-0.10272216796875,0.0162353515625,-0.9415283203125,-0.32061767578125,-1.6875,3.125,2.6875,0.1865234375,0.02294921875,0.9365234375
22,1597858299945396,-0.1019287109375,0.0181884765625,-0.94195556640625,-0.3194580078125,-8.0,0.1875,7.9375,0.1787109375,-0.01953125,0.9140625
23,1597858299966396,-0.1025390625,0.01934814453125,-0.9423828125,-0.31805419921875,1.1875,-6.875,7.5,0.1689453125,-0.0546875,0.9150390625
24,1597858299989396,-0.10504150390625,0.015625,-0.9425048828125,-0.31707763671875,24.9375,-7.5,3.25,0.19970703125,0.03759765625,0.970703125
25,1597858300005395,-0.1065673828125,0.010986328125,-0.94268798828125,-0.31622314453125,24.4375,0.8125,2.8125,0.22021484375,0.10546875,1.00244140625
26,1597858300026397,-0.10650634765625,0.00640869140625,-0.94281005859375,-0.31585693359375,19.1875,10.375,0.375,0.24755859375,0.140625,1.0537109375
27,1597858300049394,-0.1038818359375,0.0067138671875,-0.94305419921875,-0.31597900390625,-7.1875,13.75,0.125,0.208984375,0.068359375,1.04736328125
28,1597858300065398,-0.10162353515625,0.01031494140625,-0.94305419921875,-0.31671142578125,-19.6875,2.5,-2.3125,0.1494140625,-0.021484375,0.96044921875
29,1597858300086395,-0.1009521484375,0.01080322265625,-0.942626953125,-0.318115234375,3.625,1.6875,-9.9375,0.203125,-0.0712890625,1.05712890625
30,1597858300109398,-0.10211181640625,0.00689697265625,-0.9422607421875,-0.31890869140625,27.25,0.375,-8.125,0.20654296875,-0.01025390625,1.0634765625
31,1597858300125396,-0.1033935546875,0.0028076171875,-0.94189453125,-0.31976318359375,24.8125,-0.125,-7.9375,0.19580078125,0.0498046875,1.02197265625
32,1597858300146394,-0.10577392578125,-0.00164794921875,-0.94146728515625,-0.3201904296875,31.125,-6.25,-6.125,0.185546875,0.029296875,1.00537109375
33,1597858300169395,-0.109375,-0.00897216796875,-0.94085693359375,-0.32061767578125,45.8125,-6.75,-7.8125,0.189453125,0.08203125,0.94091796875
34,1597858300187394,-0.11273193359375,-0.0167236328125,-0.94024658203125,-0.3209228515625,45.0625,-3.5625,-6.9375,0.203125,0.14013671875,0.93798828125
35,1597858300206396,-0.11474609375,-0.02264404296875,-0.939697265625,-0.32147216796875,32.375,0.9375,-7.5625,0.21923828125,0.15673828125,0.9638671875
36,1597858300229395,-0.1162109375,-0.026123046875,-0.939208984375,-0.32220458984375,21.3125,-1.625,-6.8125,0.19921875,0.1171875,0.94384765625
37,1597858300247395,-0.11895751953125,-0.03125,-0.9384765625,-0.32293701171875,32.125,-5.4375,-8.4375,0.1923828125,0.12060546875,0.87890625
38,1597858300266394,-0.12213134765625,-0.03662109375,-0.9373779296875,-0.32427978515625,30.5,-7.5625,-11.875,0.20068359375,0.1923828125,0.90673828125
39,1597858300289396,-0.12408447265625,-0.0379638671875,-0.93621826171875,-0.32672119140625,2.1875,-8.4375,-14.375,0.2060546875,0.24365234375,0.91162109375
40,1597858300307397,-0.12451171875,-0.03509521484375,-0.9354248046875,-0.32916259765625,-21.8125,-7.6875,-11.4375,0.2060546875,0.21826171875,0.8818359375
41,1597858300326395,-0.124755859375,-0.03204345703125,-0.93505859375,-0.33038330078125,-19.375,-6.5,-4.75,0.205078125,0.16748046875,0.8642578125
42,1597858300349396,-0.1251220703125,-0.03173828125,-0.93505859375,-0.33038330078125,-2.25,-0.875,0.4375,0.21875,0.14794921875,0.87255859375
43,1597858300367396,-0.1248779296875,-0.03265380859375,-0.93524169921875,-0.329833984375,3.125,3.8125,2.875,0.20263671875,0.1533203125,0.88427734375
44,1597858300386395,-0.12420654296875,-0.032958984375,-0.93548583984375,-0.329345703125,-0.75,3.9375,2.9375,0.1904296875,0.1533203125,0.912109375
45,1597858300409397,-0.12335205078125,-0.0321044921875,-0.935791015625,-0.328857421875,-5.1875,2.375,3.375,0.1865234375,0.12548828125,0.931640625
46,1597858300427397,-0.12286376953125,-0.0311279296875,-0.93603515625,-0.32843017578125,-4.875,0.0,3.4375,0.1884765625,0.11865234375,0.93359375
47,1597858300446398,-0.12286376953125,-0.03076171875,-0.93621826171875,-0.327880859375,-1.875,-1.25,3.5625,0.193359375,0.13623046875,0.93798828125
48,1597858300469395,-0.12298583984375,-0.0306396484375,-0.9364013671875,-0.32745361328125,-1.5,-0.9375,3.125,0.19775390625,0.1533203125,0.9365234375
49,1597858300487395,-0.12274169921875,-0.02972412109375,-0.9365234375,-0.32720947265625,-6.1875,-0.6875,2.4375,0.20166015625,0.146484375,0.94677734375
50,1597858300506395,-0.1224365234375,-0.02838134765625,-0.93670654296875,-0.32696533203125,-7.4375,-0.75,2.1875,0.2060546875,0.1259765625,0.9521484375
51,1597858300529395,-0.12237548828125,-0.0277099609375,-0.93682861328125,-0.32666015625,-2.8125,-0.625,2.25,0.20849609375,0.12109375,0.9560546875
52,1597858300547396,-0.12249755859375,-0.0279541015625,-0.93695068359375,-0.326171875,1.8125,-0.25,2.6875,0.20703125,0.12890625,0.9521484375
53,1597858300566394,-0.12286376953125,-0.0283203125,-0.93701171875,-0.32586669921875,1.625,-0.875,1.75,0.20849609375,0.14453125,0.943359375
54,1597858300589394,-0.122802734375,-0.02789306640625,-0.93707275390625,-0.3258056640625,-4.1875,-0.5625,1.0,0.2099609375,0.1572265625,0.9521484375
55,1597858300607396,-0.12261962890625,-0.02679443359375,-0.93707275390625,-0.32586669921875,-8.625,-0.5625,1.0,0.2109375,0.16015625,0.94970703125
56,1597858300626395,-0.12225341796875,-0.0255126953125,-0.93719482421875,-0.3258056640625,-8.125,-0.5,1.625,0.2080078125,0.13525390625,0.943359375
57,1597858300649394,-0.12188720703125,-0.0245361328125,-0.93731689453125,-0.32568359375,-6.0,0.4375,1.375,0.2119140625,0.12451171875,0.96337890625
58,1597858300667396,-0.1212158203125,-0.0235595703125,-0.9375,-0.3255615234375,-5.1875,1.0625,1.375,0.20263671875,0.10302734375,0.97265625
59,1597858300686396,-0.12109375,-0.0233154296875,-0.9375,-0.32550048828125,-1.0625,-0.375,0.1875,0.19775390625,0.111328125,0.951171875
60,1597858300709396,-0.12139892578125,-0.02410888671875,-0.93743896484375,-0.3255615234375,3.9375,-0.5,-0.6875,0.2021484375,0.13427734375,0.94873046875
61,1597858300727397,-0.12164306640625,-0.02508544921875,-0.9373779296875,-0.32550048828125,4.0,0.625,-0.125,0.212890625,0.14501953125,0.9462890625
62,1597858300749398,-0.12158203125,-0.025390625,-0.93743896484375,-0.325439453125,0.6875,1.6875,0.3125,0.2158203125,0.13720703125,0.951171875
63,1597858300769396,-0.12115478515625,-0.02496337890625,-0.9375,-0.325439453125,-2.9375,1.625,0.3125,0.21142578125,0.123046875,0.95849609375
64,1597858300787395,-0.12078857421875,-0.0245361328125,-0.9375,-0.32550048828125,-2.0625,0.9375,-0.25,0.20361328125,0.107421875,0.9521484375
65,1597858300808396,-0.12078857421875,-0.0245361328125,-0.9375,-0.32550048828125,0.5,0.6875,-1.0,0.2060546875,0.12841796875,0.94677734375
66,1597858300829394,-0.12078857421875,-0.02459716796875,-0.9375,-0.32550048828125,0.5,0.8125,-0.4375,0.20263671875,0.13037109375,0.9541015625
67,1597858300847395,-0.12066650390625,-0.02490234375,-0.93756103515625,-0.32537841796875,0.75,1.375,0.5625,0.20263671875,0.1337890625,0.9423828125
68,1597858300868395,-0.12042236328125,-0.0252685546875,-0.9376220703125,-0.32525634765625,1.0625,1.9375,0.75,0.19921875,0.12890625,0.9384765625
69,1597858300890394,-0.1199951171875,-0.0252685546875,-0.937744140625,-0.32513427734375,-0.6875,1.8125,0.6875,0.20068359375,0.11962890625,0.95458984375
70,1597858300907395,-0.11956787109375,-0.02496337890625,-0.937744140625,-0.3251953125,-2.0625,0.8125,-0.1875,0.18701171875,0.1142578125,0.9384765625
71,1597858300928395,-0.11932373046875,-0.02484130859375,-0.937744140625,-0.325439453125,-1.8125,0.375,-1.0,0.19189453125,0.12646484375,0.939453125
72,1597858300949395,-0.11920166015625,-0.02447509765625,-0.93768310546875,-0.32562255859375,-3.5,-0.1875,-0.875,0.2001953125,0.13525390625,0.9345703125
73,1597858300967395,-0.11907958984375,-0.02398681640625,-0.93768310546875,-0.32568359375,-3.0625,0.1875,0.0625,0.20556640625,0.1201171875,0.94384765625
74,1597858300988396,-0.11895751953125,-0.02398681640625,-0.93780517578125,-0.325439453125,0.75,0.375,1.25,0.19921875,0.10693359375,0.94287109375
75,1597858301009397,-0.119140625,-0.02471923828125,-0.9378662109375,-0.3250732421875,4.625,0.375,1.75,0.19775390625,0.1171875,0.94775390625
76,1597858301027396,-0.11932373046875,-0.025390625,-0.93798828125,-0.3245849609375,4.4375,0.1875,2.375,0.19775390625,0.12060546875,0.94921875
77,1597858301048396,-0.11944580078125,-0.025634765625,-0.93817138671875,-0.32403564453125,2.1875,-0.1875,3.0,0.19970703125,0.1142578125,0.9384765625
78,1597858301069395,-0.1197509765625,-0.02606201171875,-0.93804931640625,-0.32415771484375,0.5625,-1.75,-0.625,0.1884765625,0.15673828125,0.93212890625
79,1597858301091397,-0.1195068359375,-0.02508544921875,-0.9381103515625,-0.32415771484375,-7.5,-0.6875,1.0,0.20068359375,0.142578125,0.939453125
80,1597858301108396,-0.11932373046875,-0.02386474609375,-0.9383544921875,-0.32373046875,-4.8125,-1.1875,3.0625,0.2021484375,0.091796875,0.9482421875
81,1597858301129395,-0.1197509765625,-0.02386474609375,-0.93853759765625,-0.32305908203125,3.8125,-1.9375,3.625,0.2060546875,0.08544921875,0.947265625
82,1597858301148398,-0.120849609375,-0.025146484375,-0.93853759765625,-0.322509765625,9.125,-3.875,2.3125,0.19775390625,0.1181640625,0.93212890625
83,1597858301169398,-0.122314453125,-0.0269775390625,-0.9384765625,-0.3218994140625,11.5625,-4.1875,2.5,0.20654296875,0.1435546875,0.9306640625
84,1597858301189394,-0.12298583984375,-0.02911376953125,-0.9385986328125,-0.3211669921875,10.5625,1.3125,3.125,0.224609375,0.17333984375,0.9765625
85,1597858301207396,-0.12255859375,-0.0301513671875,-0.9390869140625,-0.3197021484375,3.375,5.1875,8.1875,0.20947265625,0.1669921875,0.94580078125
86,1597858301229396,-0.12188720703125,-0.029296875,-0.9398193359375,-0.3179931640625,-3.625,2.4375,10.75,0.19287109375,0.10498046875,0.91455078125
87,1597858301249397,-0.12158203125,-0.02813720703125,-0.94024658203125,-0.31695556640625,-4.3125,-0.25,6.6875,0.2001953125,0.10205078125,0.9345703125
88,1597858301267395,-0.1214599609375,-0.0277099609375,-0.94036865234375,-0.316650390625,-3.4375,0.25,2.5625,0.20947265625,0.1416015625,0.9541015625
89,1597858301289395,-0.12109375,-0.0274658203125,-0.94049072265625,-0.3165283203125,-4.875,1.9375,1.4375,0.2197265625,0.17236328125,0.98388671875
90,1597858301309396,-0.11883544921875,-0.0260009765625,-0.94110107421875,-0.315673828125,-10.5625,10.0,6.0,0.19921875,0.10205078125,0.94482421875
91,1597858301327396,-0.11761474609375,-0.0242919921875,-0.94146728515625,-0.3150634765625,-10.375,3.8125,5.0,0.18994140625,0.1025390625,0.888671875
92,1597858301350396,-0.1175537109375,-0.02301025390625,-0.94140625,-0.31536865234375,-6.5625,-3.1875,-1.125,0.17822265625,0.1005859375,0.9072265625
93,1597858301369395,-0.1182861328125,-0.02191162109375,-0.94122314453125,-0.31585693359375,-4.5625,-7.125,-2.1875,0.18115234375,0.09814453125,0.9130859375
94,1597858301388398,-0.11932373046875,-0.021728515625,-0.9410400390625,-0.31585693359375,1.4375,-5.75,-0.1875,0.20849609375,0.10546875,0.94384765625
95,1597858301409397,-0.12017822265625,-0.02276611328125,-0.941162109375,-0.31524658203125,7.0,-2.0625,2.75,0.22021484375,0.12548828125,0.97314453125
96,1597858301429396,-0.120361328125,-0.0234375,-0.94134521484375,-0.3145751953125,2.25,1.25,3.9375,0.22412109375,0.15380859375,0.978515625
97,1597858301447396,-0.11981201171875,-0.02276611328125,-0.9415283203125,-0.31427001953125,-7.0625,2.0625,2.9375,0.2177734375,0.15478515625,0.9716796875
98,1597858301469395,-0.1185302734375,-0.02020263671875,-0.94171142578125,-0.3143310546875,-17.4375,2.0,1.8125,0.201171875,0.130859375,0.9599609375
99,1597858301489394,-0.11688232421875,-0.01641845703125,-0.94195556640625,-0.3143310546875,-21.3125,1.75,2.4375,0.19921875,0.0693359375,0.958984375
100,1597858301511395,-0.11578369140625,-0.0137939453125,-0.94219970703125,-0.31427001953125,-13.5625,0.75,1.875,0.19921875,0.06005859375,0.96435546875
