index,timestamp,orientation_x,orientation_y,orientation_z,orientation_w,gyroscope_x,gyroscope_y,gyroscope_z,acceleration_x,acceleration_y,acceleration_z
0,1597841444478292,0.066650390625,0.00079345703125,0.686279296875,-0.72430419921875,-4.125,-7.375,-3.25,0.0146484375,0.0107421875,0.892578125
1,1597841444494292,0.07080078125,-0.0015869140625,0.68719482421875,-0.7230224609375,-27.6875,-6.125,-7.75,0.0908203125,-0.09375,0.93017578125
2,1597841444517295,0.0755615234375,-0.00299072265625,0.68743896484375,-0.7222900390625,-19.0625,-7.1875,-3.375,0.1826171875,-0.20703125,1.01123046875
3,1597841444540510,0.07611083984375,-0.00213623046875,0.6868896484375,-0.72271728515625,5.8125,-2.1875,3.3125,0.1572265625,-0.18359375,1.03369140625
4,1597841444555077,0.07293701171875,-0.00048828125,0.68658447265625,-0.723388671875,18.8125,5.0625,3.1875,0.099609375,-0.0947265625,1.0107421875
5,1597841444577699,0.07037353515625,0.0001220703125,0.686767578125,-0.72344970703125,7.75,5.5,-0.375,0.06103515625,-0.02197265625,0.97509765625
6,1597841444601011,0.0703125,-0.00054931640625,0.68701171875,-0.7232666015625,-7.1875,0.1875,-1.3125,0.05615234375,-0.04052734375,1.00390625
7,1597841444614566,0.073974609375,-0.00372314453125,0.6868896484375,-0.72296142578125,-23.1875,-2.125,-0.125,0.08544921875,-0.1796875,0.98876953125
8,1597841444637992,0.07568359375,-0.00439453125,0.686279296875,-0.723388671875,-5.0625,-3.3125,4.0,0.1083984375,-0.1787109375,0.99658203125
9,1597841444660298,0.07421875,-0.00225830078125,0.685791015625,-0.7239990234375,15.875,-2.125,3.6875,0.1181640625,-0.1279296875,0.9833984375
10,1597841444681128,0.07183837890625,-0.00030517578125,0.685546875,-0.7244873046875,12.8125,1.75,2.5,0.1064453125,-0.03515625,0.98828125
11,1597841444704060,0.0714111328125,-0.00030517578125,0.685791015625,-0.7242431640625,-0.25,0.0625,-1.9375,0.07177734375,-0.0732421875,0.97119140625
12,1597841444720226,0.0732421875,-0.0023193359375,0.68585205078125,-0.7239990234375,-13.9375,1.4375,-0.5,0.09765625,-0.1318359375,0.97607421875
13,1597841444734988,0.07427978515625,-0.002685546875,0.6854248046875,-0.724365234375,-4.75,-2.3125,3.25,0.10107421875,-0.12646484375,0.98193359375
14,1597841444758093,0.0738525390625,-0.00244140625,0.6851806640625,-0.724609375,3.875,3.0,1.875,0.134765625,-0.1240234375,0.9755859375
15,1597841444780098,0.07232666015625,-0.00274658203125,0.68499755859375,-0.72491455078125,6.125,8.1875,2.25,0.1083984375,-0.1240234375,1.017578125
16,1597841444801092,0.06976318359375,-0.00274658203125,0.68505859375,-0.72509765625,8.0,9.25,0.6875,0.0888671875,-0.072265625,1.03857421875
17,1597841444818095,0.0693359375,-0.0030517578125,0.68505859375,-0.72515869140625,-3.0,0.375,0.1875,0.04736328125,-0.0517578125,0.94140625
18,1597841444840091,0.07073974609375,-0.004150390625,0.68487548828125,-0.72515869140625,-10.4375,0.5,1.4375,0.111328125,-0.1015625,0.97705078125
19,1597841444854092,0.0709228515625,-0.00433349609375,0.68463134765625,-0.7254638671875,1.3125,2.625,2.3125,0.13134765625,-0.14892578125,1.0009765625
20,1597841444878264,0.0694580078125,-0.00390625,0.68426513671875,-0.72589111328125,9.5,3.25,2.875,0.083984375,-0.1318359375,1.0234375
21,1597841444900178,0.067626953125,-0.0028076171875,0.68408203125,-0.72625732421875,8.5625,2.0,1.75,0.0791015625,-0.0576171875,1.00634765625
22,1597841444914158,0.0672607421875,-0.0023193359375,0.68414306640625,-0.72625732421875,0.5625,-2.4375,-0.25,0.060546875,-0.05517578125,0.9619140625
23,1597841444937756,0.068603515625,-0.0030517578125,0.68408203125,-0.7261962890625,-8.0,-1.625,0.3125,0.1005859375,-0.10986328125,0.99267578125
24,1597841444960202,0.0692138671875,-0.00360107421875,0.68402099609375,-0.7261962890625,-1.4375,1.375,0.1875,0.1103515625,-0.158203125,1.00732421875
25,1597841444974212,0.0679931640625,-0.00323486328125,0.68414306640625,-0.7261962890625,6.25,3.6875,-0.4375,0.09521484375,-0.1005859375,0.98828125
26,1597841444997214,0.06689453125,-0.00299072265625,0.68426513671875,-0.7261962890625,3.5,3.125,-0.625,0.08154296875,-0.06884765625,0.982421875
27,1597841445022210,0.06671142578125,-0.00335693359375,0.68438720703125,-0.72601318359375,-1.125,1.75,-1.0,0.07861328125,-0.09619140625,0.98876953125
28,1597841445041342,0.06671142578125,-0.00335693359375,0.68438720703125,-0.72601318359375,-0.625,0.5,-0.625,0.0908203125,-0.10693359375,0.9931640625
29,1597841445058263,0.0665283203125,-0.0028076171875,0.6844482421875,-0.72601318359375,2.25,-0.9375,-0.25,0.0966796875,-0.0947265625,0.99755859375
30,1597841445080261,0.0665283203125,-0.00225830078125,0.6844482421875,-0.72601318359375,1.4375,-1.625,-0.125,0.09765625,-0.0869140625,0.98486328125
31,1597841445101268,0.0667724609375,-0.0023193359375,0.6844482421875,-0.72601318359375,-1.0625,0.125,-0.1875,0.0966796875,-0.10595703125,0.982421875
32,1597841445118277,0.0667724609375,-0.00238037109375,0.6844482421875,-0.72601318359375,0.0625,0.9375,-0.25,0.09130859375,-0.11474609375,0.98583984375
33,1597841445140342,0.0662841796875,-0.002197265625,0.68438720703125,-0.72607421875,2.625,1.4375,0.375,0.08984375,-0.09716796875,0.98046875
34,1597841445161349,0.0660400390625,-0.0018310546875,0.6844482421875,-0.72607421875,1.0625,-0.625,-0.25,0.0849609375,-0.07861328125,0.98876953125
35,1597841445178345,0.06646728515625,-0.00189208984375,0.6845703125,-0.72589111328125,-2.5,-0.8125,-1.0625,0.09814453125,-0.095703125,0.9951171875
36,1597841445200696,0.06683349609375,-0.00213623046875,0.6846923828125,-0.72576904296875,-1.9375,0.0,-1.0,0.09423828125,-0.1064453125,0.99560546875
37,1597841445221357,0.06707763671875,-0.00238037109375,0.684814453125,-0.7255859375,-1.5,0.4375,-1.125,0.091796875,-0.11279296875,0.9931640625
38,1597841445238341,0.067138671875,-0.0020751953125,0.684814453125,-0.7255859375,0.375,-1.75,-0.1875,0.083984375,-0.09228515625,0.98095703125
39,1597841445267186,0.06756591796875,-0.00189208984375,0.684814453125,-0.7255859375,-1.5625,-1.875,-0.125,0.09912109375,-0.09228515625,0.98193359375
40,1597841445289195,0.067626953125,-0.00189208984375,0.684814453125,-0.7255859375,-0.1875,-0.375,-0.5,0.1005859375,-0.11376953125,0.998046875
41,1597841445297595,0.067138671875,-0.00164794921875,0.6849365234375,-0.72552490234375,3.375,1.5,-0.75,0.09619140625,-0.10693359375,1.0
42,1597841445320186,0.06634521484375,-0.00146484375,0.68505859375,-0.7254638671875,2.8125,1.75,-0.625,0.0830078125,-0.08447265625,0.9892578125
43,1597841445341367,0.06622314453125,-0.00152587890625,0.6851806640625,-0.725341796875,-1.5625,-0.0625,-0.875,0.07666015625,-0.072265625,0.9892578125
44,1597841445357723,0.0667724609375,-0.00189208984375,0.685302734375,-0.7252197265625,-3.5625,-0.6875,-1.125,0.08837890625,-0.10302734375,0.9921875
45,1597841445380354,0.06719970703125,-0.00201416015625,0.685302734375,-0.72509765625,-1.0625,-0.5,-0.5,0.09521484375,-0.1201171875,0.99951171875
46,1597841445402346,0.06683349609375,-0.00177001953125,0.6854248046875,-0.72509765625,2.9375,0.875,-0.6875,0.09765625,-0.107421875,0.98779296875
47,1597841445417902,0.06610107421875,-0.00140380859375,0.68560791015625,-0.7249755859375,3.25,1.1875,-1.1875,0.08642578125,-0.078125,0.9970703125
48,1597841445440345,0.066162109375,-0.00146484375,0.68572998046875,-0.724853515625,-1.625,0.25,-0.75,0.087890625,-0.08447265625,0.98486328125
49,1597841445462344,0.06658935546875,-0.001708984375,0.685791015625,-0.7247314453125,-3.0,-0.625,-0.75,0.09130859375,-0.09521484375,0.98486328125
50,1597841445485356,0.06689453125,-0.001953125,0.6859130859375,-0.724609375,-2.0,0.4375,-0.875,0.10009765625,-0.10595703125,0.994140625
51,1597841445500345,0.06689453125,-0.00201416015625,0.68597412109375,-0.72454833984375,0.5625,1.0,-0.625,0.09814453125,-0.1103515625,0.99462890625
52,1597841445522345,0.06640625,-0.00177001953125,0.68603515625,-0.72454833984375,2.375,0.875,-0.3125,0.0869140625,-0.09326171875,0.98486328125
53,1597841445538350,0.06640625,-0.001708984375,0.68603515625,-0.72454833984375,0.9375,-0.3125,0.0625,0.08935546875,-0.0791015625,0.9775390625
54,1597841445560344,0.06658935546875,-0.00189208984375,0.68603515625,-0.7244873046875,-1.4375,0.0,-0.125,0.0908203125,-0.099609375,0.9921875
55,1597841445565345,0.06658935546875,-0.00189208984375,0.68603515625,-0.7244873046875,-0.625,0.875,-0.1875,0.09375,-0.10302734375,0.9853515625
56,1597841445588485,0.06640625,-0.0018310546875,0.68603515625,-0.72454833984375,1.0625,0.75,0.1875,0.0908203125,-0.10107421875,0.984375
57,1597841445604345,0.06640625,-0.0018310546875,0.68603515625,-0.72454833984375,0.375,0.1875,-0.125,0.08984375,-0.08740234375,0.98876953125
58,1597841445625348,0.066650390625,-0.00177001953125,0.68609619140625,-0.72442626953125,-1.75,-0.8125,-0.625,0.09228515625,-0.08544921875,0.984375
59,1597841445647450,0.06707763671875,-0.0018310546875,0.6861572265625,-0.724365234375,-2.3125,-1.0,-0.5,0.09619140625,-0.10009765625,0.98681640625
60,1597841445664476,0.0675048828125,-0.001953125,0.6861572265625,-0.72430419921875,-1.75,-0.75,-0.5,0.09521484375,-0.10888671875,0.990234375
61,1597841445685463,0.06756591796875,-0.001953125,0.6861572265625,-0.72430419921875,0.6875,0.25,-0.125,0.09716796875,-0.10546875,0.98828125
62,1597841445708676,0.06732177734375,-0.00164794921875,0.686279296875,-0.7242431640625,1.1875,-0.375,-0.625,0.0908203125,-0.08740234375,0.98779296875
63,1597841445724665,0.06756591796875,-0.001708984375,0.68634033203125,-0.72418212890625,-2.3125,-0.25,-0.4375,0.09423828125,-0.08642578125,0.99462890625
64,1597841445745460,0.0679931640625,-0.001953125,0.68634033203125,-0.72406005859375,-2.4375,-0.25,-0.3125,0.0986328125,-0.10595703125,0.9951171875
65,1597841445768287,0.06805419921875,-0.001953125,0.68634033203125,-0.72406005859375,0.125,0.9375,-0.1875,0.1064453125,-0.107421875,0.9951171875
66,1597841445785286,0.067626953125,-0.00164794921875,0.68634033203125,-0.72412109375,1.9375,0.9375,0.125,0.09521484375,-0.08935546875,0.98779296875
67,1597841445805280,0.067626953125,-0.00164794921875,0.68634033203125,-0.72412109375,0.4375,0.9375,0.25,0.095703125,-0.0908203125,0.99267578125
68,1597841445828278,0.06768798828125,-0.00177001953125,0.686279296875,-0.72412109375,-1.375,0.0,0.3125,0.08740234375,-0.09375,0.9873046875
69,1597841445844528,0.06793212890625,-0.00177001953125,0.686279296875,-0.72418212890625,-1.1875,-0.5,0.125,0.0966796875,-0.0986328125,0.9892578125
70,1597841445865468,0.06793212890625,-0.00177001953125,0.686279296875,-0.72412109375,0.5,0.0625,-0.0625,0.0966796875,-0.10400390625,0.998046875
71,1597841445888467,0.06793212890625,-0.00177001953125,0.686279296875,-0.72412109375,0.75,0.3125,0.0,0.09326171875,-0.10302734375,0.99267578125
72,1597841445904502,0.06768798828125,-0.0015869140625,0.686279296875,-0.72412109375,1.1875,0.6875,-0.125,0.09814453125,-0.09521484375,0.99462890625
73,1597841445925627,0.06744384765625,-0.0015869140625,0.68634033203125,-0.72418212890625,0.125,1.0625,0.0625,0.09130859375,-0.087890625,0.994140625
74,1597841445947644,0.06756591796875,-0.00177001953125,0.68634033203125,-0.72412109375,-1.375,0.25,-0.125,0.0908203125,-0.0966796875,0.99609375
75,1597841445964647,0.06756591796875,-0.001708984375,0.68634033203125,-0.72412109375,-0.4375,0.875,-0.1875,0.10205078125,-0.1044921875,0.99169921875
76,1597841445985663,0.067138671875,-0.001708984375,0.6864013671875,-0.72412109375,2.0,2.25,-0.3125,0.09765625,-0.09912109375,0.99169921875
77,1597841446007653,0.0665283203125,-0.0015869140625,0.68646240234375,-0.72412109375,2.0625,2.0,-0.125,0.08984375,-0.09033203125,0.98974609375
78,1597841446024872,0.0665283203125,-0.0015869140625,0.68646240234375,-0.72412109375,-0.375,0.625,0.0625,0.08056640625,-0.09423828125,0.98046875
79,1597841446045757,0.066650390625,-0.00177001953125,0.6864013671875,-0.72412109375,-1.25,-0.25,0.0625,0.083984375,-0.1005859375,0.98681640625
80,1597841446067907,0.06671142578125,-0.00177001953125,0.6864013671875,-0.72412109375,0.25,-0.5,-0.5625,0.0927734375,-0.10205078125,0.98486328125
81,1597841446086603,0.06658935546875,-0.00164794921875,0.68646240234375,-0.72406005859375,1.0625,0.0625,-0.5625,0.091796875,-0.1005859375,0.98681640625
82,1597841446105759,0.06634521484375,-0.00146484375,0.6865234375,-0.72406005859375,1.0625,0.0,-0.25,0.08642578125,-0.091796875,0.9833984375
83,1597841446127763,0.06634521484375,-0.00146484375,0.6865234375,-0.72406005859375,-0.375,0.4375,-0.5625,0.087890625,-0.09375,0.9833984375
84,1597841446145854,0.06634521484375,-0.00146484375,0.6865234375,-0.72406005859375,-0.6875,0.6875,-0.1875,0.08984375,-0.10009765625,0.98583984375
85,1597841446165854,0.06610107421875,-0.00146484375,0.6865234375,-0.72406005859375,0.75,1.25,-0.1875,0.091796875,-0.0947265625,1.01025390625
86,1597841446187499,0.0660400390625,-0.00146484375,0.6865234375,-0.72406005859375,0.0625,0.125,-0.0625,0.08056640625,-0.0869140625,0.97998046875
87,1597841446205620,0.0662841796875,-0.00164794921875,0.68658447265625,-0.7239990234375,-1.5625,-0.125,-0.375,0.08935546875,-0.10107421875,0.98583984375
88,1597841446225620,0.06634521484375,-0.00164794921875,0.68658447265625,-0.7239990234375,0.1875,0.75,0.625,0.10009765625,-0.11865234375,0.9951171875
89,1597841446248217,0.0657958984375,-0.00146484375,0.68646240234375,-0.72418212890625,3.25,1.3125,1.0625,0.08447265625,-0.099609375,0.99169921875
90,1597841446270216,0.06573486328125,-0.00146484375,0.68646240234375,-0.72418212890625,0.8125,0.5,0.3125,0.07958984375,-0.07470703125,0.990234375
91,1597841446285231,0.066162109375,-0.0018310546875,0.6864013671875,-0.7242431640625,-3.6875,-0.5625,0.625,0.0830078125,-0.09228515625,0.98095703125
92,1597841446308225,0.06658935546875,-0.0020751953125,0.68621826171875,-0.72430419921875,-1.875,-0.375,0.9375,0.09521484375,-0.11279296875,0.9892578125
93,1597841446330219,0.06646728515625,-0.00189208984375,0.68609619140625,-0.72442626953125,1.75,0.375,0.9375,0.0986328125,-0.10693359375,0.99365234375
94,1597841446345217,0.06597900390625,-0.00146484375,0.68603515625,-0.72454833984375,2.75,0.5,0.75,0.0927734375,-0.08203125,0.990234375
95,1597841446368218,0.0660400390625,-0.00152587890625,0.6859130859375,-0.72467041015625,-1.375,-0.0625,1.1875,0.08740234375,-0.08447265625,0.9931640625
96,1597841446390372,0.06640625,-0.0015869140625,0.685791015625,-0.72479248046875,-2.4375,-0.9375,1.0625,0.09375,-0.09228515625,0.99169921875
97,1597841446405242,0.06646728515625,-0.0015869140625,0.68572998046875,-0.72479248046875,-0.9375,-0.3125,0.875,0.09716796875,-0.111328125,0.9951171875
98,1597841446428218,0.06622314453125,-0.0013427734375,0.6856689453125,-0.724853515625,1.4375,0.3125,0.625,0.09521484375,-0.09375,0.99267578125
99,1597841446450857,0.06585693359375,-0.00115966796875,0.68560791015625,-0.7249755859375,1.375,0.875,0.8125,0.09326171875,-0.0859375,0.99072265625
100,1597841446465807,0.06585693359375,-0.00115966796875,0.68560791015625,-0.7249755859375,-0.0625,0.6875,0.75,0.091796875,-0.08544921875,0.98876953125
101,1597841446487806,0.06585693359375,-0.0010986328125,0.68560791015625,-0.7249755859375,-0.6875,0.125,0.3125,0.087890625,-0.08837890625,0.99267578125
