index,timestamp,orientation_x,orientation_y,orientation_z,orientation_w,gyroscope_x,gyroscope_y,gyroscope_z,acceleration_x,acceleration_y,acceleration_z
0,1597841428716009,0.07257080078125,-0.0369873046875,0.6949462890625,-0.7144775390625,-25.0,-5.875,-1.0625,0.04150390625,-0.236328125,1.02734375
1,1597841428739151,0.07470703125,-0.0380859375,0.6947021484375,-0.71435546875,-6.125,-3.4375,0.125,0.0595703125,-0.2705078125,1.02880859375
2,1597841428759931,0.07354736328125,-0.03704833984375,0.69482421875,-0.71441650390625,13.1875,0.6875,-0.5625,0.05419921875,-0.22314453125,1.009765625
3,1597841428780929,0.0709228515625,-0.03509521484375,0.69500732421875,-0.71466064453125,18.125,1.875,-0.1875,0.041015625,-0.142578125,0.99853515625
4,1597841428798928,0.0692138671875,-0.03314208984375,0.6949462890625,-0.7149658203125,10.875,-1.875,1.125,0.03759765625,-0.0869140625,0.990234375
5,1597841428817653,0.069580078125,-0.03253173828125,0.694580078125,-0.71527099609375,-2.0625,-4.25,2.375,0.05029296875,-0.10205078125,0.9716796875
6,1597841428835773,0.0714111328125,-0.03314208984375,0.69415283203125,-0.71551513671875,-9.375,-4.5625,2.9375,0.05859375,-0.1552734375,0.98828125
7,1597841428858652,0.07275390625,-0.03363037109375,0.693603515625,-0.71588134765625,-4.75,-2.0625,3.4375,0.07421875,-0.193359375,0.98876953125
8,1597841428880651,0.072265625,-0.03338623046875,0.69329833984375,-0.71624755859375,5.25,1.375,2.75,0.06201171875,-0.181640625,0.99267578125
9,1597841428895654,0.0704345703125,-0.0323486328125,0.69317626953125,-0.716552734375,10.1875,2.625,1.625,0.048828125,-0.11865234375,0.9619140625
10,1597841428918702,0.06976318359375,-0.03204345703125,0.693115234375,-0.71673583984375,2.25,-0.0625,0.9375,0.02783203125,-0.11572265625,0.96240234375
11,1597841428937709,0.07061767578125,-0.0322265625,0.69281005859375,-0.7169189453125,-3.125,-3.25,1.75,0.0458984375,-0.15966796875,0.96728515625
12,1597841428955702,0.0711669921875,-0.03192138671875,0.6925048828125,-0.7171630859375,-0.375,-2.5625,2.0,0.06591796875,-0.15673828125,0.98974609375
13,1597841428978910,0.07086181640625,-0.03125,0.692138671875,-0.71759033203125,4.625,-0.6875,3.0625,0.068359375,-0.15625,1.00439453125
14,1597841428999921,0.06976318359375,-0.0301513671875,0.69195556640625,-0.71795654296875,7.875,-0.1875,2.125,0.0576171875,-0.1279296875,0.9912109375
15,1597841429015684,0.0694580078125,-0.02978515625,0.6917724609375,-0.71820068359375,1.5,-0.125,1.625,0.05419921875,-0.12451171875,0.994140625
16,1597841429038685,0.0697021484375,-0.029541015625,0.69146728515625,-0.71844482421875,-1.0,-1.8125,2.0625,0.05908203125,-0.13134765625,0.9951171875
17,1597841429065674,0.0704345703125,-0.0299072265625,0.691162109375,-0.7186279296875,-3.875,-1.375,2.1875,0.05908203125,-0.15234375,1.00537109375
18,1597841429075775,0.070556640625,-0.02960205078125,0.69085693359375,-0.71893310546875,0.3125,-1.125,2.4375,0.06884765625,-0.134765625,0.98779296875
19,1597841429098766,0.071533203125,-0.0302734375,0.6904296875,-0.71917724609375,-4.875,-0.375,2.6875,0.06884765625,-0.16943359375,0.96630859375
20,1597841429119726,0.0733642578125,-0.0302734375,0.6900634765625,-0.7193603515625,-6.3125,-5.375,2.125,0.08056640625,-0.16162109375,0.93505859375
21,1597841429135671,0.07635498046875,-0.0313720703125,0.6895751953125,-0.719482421875,-13.75,-5.125,2.625,0.09228515625,-0.185546875,0.9248046875
22,1597841429158672,0.07501220703125,-0.0291748046875,0.68865966796875,-0.72064208984375,14.5625,-2.3125,7.75,0.08642578125,-0.1484375,0.98486328125
23,1597841429179761,0.0728759765625,-0.02764892578125,0.68756103515625,-0.721923828125,16.1875,-0.3125,9.0,0.0419921875,-0.1630859375,1.03076171875
24,1597841429200675,0.069091796875,-0.0262451171875,0.6871337890625,-0.72271728515625,18.875,8.125,4.9375,0.04833984375,-0.103515625,1.02587890625
25,1597841429219179,0.0675048828125,-0.02801513671875,0.68756103515625,-0.722412109375,-1.9375,13.0,-2.0625,0.04541015625,-0.1240234375,1.03955078125
26,1597841429239183,0.06488037109375,-0.02838134765625,0.68829345703125,-0.72198486328125,8.0,12.6875,-4.0,0.0556640625,-0.12060546875,1.03857421875
27,1597841429260182,0.06317138671875,-0.0286865234375,0.6881103515625,-0.7222900390625,1.5625,5.625,1.9375,0.01220703125,-0.06689453125,1.0
28,1597841429278181,0.06427001953125,-0.03045654296875,0.68768310546875,-0.72247314453125,-14.125,0.6875,3.0,0.013671875,-0.1015625,0.982421875
29,1597841429299903,0.06732177734375,-0.03253173828125,0.687255859375,-0.72259521484375,-17.125,-3.375,2.1875,0.0458984375,-0.19091796875,0.96240234375
30,1597841429321182,0.0692138671875,-0.03277587890625,0.6868896484375,-0.72271728515625,-4.9375,-6.1875,1.8125,0.056640625,-0.19580078125,0.94677734375
31,1597841429338176,0.06915283203125,-0.03082275390625,0.68634033203125,-0.723388671875,11.6875,-7.125,3.9375,0.06298828125,-0.19091796875,0.97314453125
32,1597841429361184,0.06744384765625,-0.027587890625,0.68572998046875,-0.72418212890625,19.25,-5.875,4.8125,0.0712890625,-0.12939453125,0.99169921875
33,1597841429380604,0.06622314453125,-0.0250244140625,0.68548583984375,-0.72467041015625,10.5625,-4.4375,2.5,0.0751953125,-0.05810546875,0.97314453125
34,1597841429398176,0.06707763671875,-0.0247802734375,0.68524169921875,-0.72479248046875,-5.0,-3.125,1.5625,0.0751953125,-0.09716796875,0.9873046875
35,1597841429421190,0.06878662109375,-0.02587890625,0.68487548828125,-0.72491455078125,-10.9375,-1.3125,2.375,0.072265625,-0.1435546875,0.99951171875
36,1597841429440178,0.06976318359375,-0.02685546875,0.68450927734375,-0.72515869140625,-6.375,-0.3125,2.3125,0.0498046875,-0.16357421875,0.97314453125
37,1597841429458178,0.06988525390625,-0.02716064453125,0.68438720703125,-0.7252197265625,-0.875,0.9375,1.0,0.05859375,-0.14697265625,0.99072265625
38,1597841429481177,0.06927490234375,-0.02691650390625,0.684326171875,-0.725341796875,2.5625,1.4375,0.6875,0.056640625,-0.126953125,1.00244140625
39,1597841429500173,0.06878662109375,-0.026611328125,0.68438720703125,-0.72540283203125,1.4375,-0.1875,-0.125,0.04736328125,-0.1162109375,1.0068359375
40,1597841429519178,0.069091796875,-0.026611328125,0.68438720703125,-0.725341796875,-2.9375,-1.625,-0.1875,0.0498046875,-0.111328125,0.9892578125
41,1597841429541189,0.07000732421875,-0.02679443359375,0.68426513671875,-0.725341796875,-4.875,-3.0625,0.4375,0.05810546875,-0.13623046875,0.99609375
42,1597841429560186,0.07073974609375,-0.0264892578125,0.68414306640625,-0.7254638671875,-0.8125,-3.0,0.8125,0.07421875,-0.15673828125,1.00830078125
43,1597841429578959,0.07025146484375,-0.0255126953125,0.68414306640625,-0.7254638671875,5.3125,-0.9375,-0.1875,0.07373046875,-0.13232421875,1.0048828125
44,1597841429602247,0.06939697265625,-0.02496337890625,0.68426513671875,-0.72552490234375,3.9375,0.9375,-0.4375,0.0615234375,-0.11328125,1.01708984375
45,1597841429620364,0.0693359375,-0.02490234375,0.68426513671875,-0.72552490234375,-0.625,-0.9375,-0.25,0.05126953125,-0.11083984375,0.9921875
46,1597841429638367,0.0701904296875,-0.02557373046875,0.684326171875,-0.725341796875,-5.5625,-0.125,-0.5625,0.06689453125,-0.1484375,0.99560546875
47,1597841429661364,0.07061767578125,-0.02587890625,0.684326171875,-0.72528076171875,-1.625,0.4375,-0.25,0.0712890625,-0.162109375,1.00390625
48,1597841429682371,0.07012939453125,-0.02545166015625,0.6844482421875,-0.7252197265625,3.8125,0.875,-0.75,0.072265625,-0.13818359375,0.99365234375
49,1597841429699369,0.0694580078125,-0.0250244140625,0.68463134765625,-0.72515869140625,3.6875,1.625,-1.1875,0.06787109375,-0.1298828125,1.00341796875
50,1597841429721375,0.069091796875,-0.02496337890625,0.684814453125,-0.7249755859375,0.3125,1.3125,-1.1875,0.05859375,-0.115234375,0.9873046875
51,1597841429740723,0.0694580078125,-0.02508544921875,0.68475341796875,-0.72503662109375,-2.3125,-1.5,0.3125,0.052734375,-0.12548828125,0.970703125
52,1597841429758363,0.06951904296875,-0.02508544921875,0.68475341796875,-0.72503662109375,-0.6875,-0.875,0.3125,0.07470703125,-0.15087890625,0.98779296875
53,1597841429781362,0.06878662109375,-0.0245361328125,0.684814453125,-0.72509765625,5.6875,1.4375,-0.125,0.0693359375,-0.14111328125,0.99658203125
54,1597841429800583,0.06756591796875,-0.0240478515625,0.6849365234375,-0.72509765625,6.125,3.0,-0.5625,0.056640625,-0.1201171875,0.99951171875
55,1597841429818459,0.0675048828125,-0.0240478515625,0.6849365234375,-0.72509765625,0.625,0.625,-0.4375,0.0419921875,-0.11669921875,0.970703125
56,1597841429845475,0.06805419921875,-0.0245361328125,0.6849365234375,-0.72503662109375,-3.875,-0.75,-0.25,0.052734375,-0.13623046875,0.97802734375
57,1597841429860431,0.068115234375,-0.0245361328125,0.6849365234375,-0.72503662109375,0.75,0.125,-0.25,0.06884765625,-0.15478515625,0.994140625
58,1597841429878430,0.06719970703125,-0.02398681640625,0.68511962890625,-0.72491455078125,6.125,1.9375,-1.0625,0.06396484375,-0.1337890625,1.0029296875
59,1597841429901432,0.06640625,-0.02386474609375,0.685302734375,-0.724853515625,2.75,2.25,-1.25,0.04833984375,-0.11474609375,0.9873046875
60,1597841429921598,0.0665283203125,-0.02398681640625,0.6854248046875,-0.72467041015625,-2.0,-0.4375,-1.125,0.04736328125,-0.11572265625,0.9736328125
61,1597841429937522,0.06732177734375,-0.02435302734375,0.6854248046875,-0.724609375,-3.4375,-0.75,-0.125,0.068359375,-0.1494140625,0.98046875
62,1597841429960847,0.0672607421875,-0.02423095703125,0.68548583984375,-0.724609375,1.5625,0.5,-0.3125,0.06787109375,-0.14501953125,0.99560546875
63,1597841429981510,0.06658935546875,-0.02386474609375,0.68548583984375,-0.724609375,4.125,1.4375,0.0,0.06298828125,-0.1259765625,0.9873046875
64,1597841429997608,0.0665283203125,-0.02386474609375,0.68548583984375,-0.724609375,0.6875,0.8125,0.0,0.05078125,-0.111328125,0.9736328125
65,1597841430020509,0.06695556640625,-0.02392578125,0.68536376953125,-0.72467041015625,-2.4375,-1.25,0.625,0.0556640625,-0.12548828125,0.978515625
66,1597841430041620,0.06744384765625,-0.0240478515625,0.685302734375,-0.7247314453125,-1.75,-1.25,0.375,0.0634765625,-0.1416015625,0.98828125
67,1597841430057511,0.06719970703125,-0.023681640625,0.68524169921875,-0.72479248046875,2.9375,0.0625,0.5,0.06591796875,-0.13720703125,0.99609375
68,1597841430080509,0.0665283203125,-0.02313232421875,0.685302734375,-0.724853515625,4.25,0.875,-0.25,0.06787109375,-0.1220703125,0.99755859375
69,1597841430101526,0.06646728515625,-0.0230712890625,0.685302734375,-0.724853515625,-0.875,0.0625,-0.25,0.0546875,-0.1005859375,0.9814453125
70,1597841430117942,0.06719970703125,-0.02337646484375,0.685302734375,-0.72479248046875,-4.625,-1.25,-0.125,0.06103515625,-0.1201171875,0.97998046875
71,1597841430140609,0.06793212890625,-0.023681640625,0.68524169921875,-0.7247314453125,-3.0,-1.0625,0.125,0.0703125,-0.14990234375,0.98828125
72,1597841430161631,0.0677490234375,-0.02337646484375,0.685302734375,-0.7247314453125,3.0,0.625,-0.1875,0.07568359375,-0.14599609375,0.9970703125
73,1597841430177628,0.06695556640625,-0.02294921875,0.68536376953125,-0.72479248046875,4.0625,2.0,-0.125,0.0693359375,-0.11865234375,0.99658203125
74,1597841430200755,0.06689453125,-0.02288818359375,0.68536376953125,-0.72479248046875,-0.6875,0.9375,0.4375,0.0458984375,-0.10400390625,0.9892578125
75,1597841430221333,0.0675048828125,-0.0233154296875,0.68524169921875,-0.72479248046875,-4.125,-0.75,0.6875,0.0576171875,-0.13232421875,0.99072265625
76,1597841430237650,0.06756591796875,-0.0233154296875,0.68524169921875,-0.72479248046875,0.0625,-0.625,0.1875,0.0693359375,-0.138671875,0.998046875
77,1597841430260678,0.06719970703125,-0.02294921875,0.685302734375,-0.72479248046875,2.9375,0.1875,-0.25,0.064453125,-0.12744140625,0.99609375
78,1597841430282951,0.0667724609375,-0.02264404296875,0.685302734375,-0.72479248046875,1.6875,0.4375,-0.25,0.05712890625,-0.11572265625,0.99267578125
79,1597841430297674,0.06683349609375,-0.02276611328125,0.6854248046875,-0.7247314453125,-1.4375,0.25,-0.625,0.06005859375,-0.1171875,0.98291015625
80,1597841430319677,0.0672607421875,-0.0228271484375,0.6854248046875,-0.72467041015625,-2.125,-0.875,-0.1875,0.0634765625,-0.12841796875,0.9892578125
81,1597841430342676,0.06732177734375,-0.0228271484375,0.6854248046875,-0.72467041015625,-0.875,-0.6875,-0.25,0.0751953125,-0.1376953125,0.9921875
82,1597841430356796,0.06707763671875,-0.02252197265625,0.6854248046875,-0.72467041015625,2.25,1.0625,-0.1875,0.08251953125,-0.13134765625,0.9921875
83,1597841430380663,0.06646728515625,-0.022216796875,0.68548583984375,-0.72467041015625,2.4375,1.5625,-0.1875,0.0625,-0.1103515625,0.998046875
84,1597841430402736,0.06646728515625,-0.02227783203125,0.68548583984375,-0.72467041015625,-1.5,0.0625,0.125,0.05859375,-0.10888671875,0.986328125
85,1597841430417274,0.0670166015625,-0.0225830078125,0.6854248046875,-0.7247314453125,-3.125,-0.5,0.625,0.06640625,-0.1328125,0.986328125
86,1597841430439736,0.06707763671875,-0.02252197265625,0.6854248046875,-0.7247314453125,0.625,0.4375,0.3125,0.07373046875,-0.142578125,0.99560546875
87,1597841430462821,0.06640625,-0.02203369140625,0.6854248046875,-0.72479248046875,4.625,0.875,0.0,0.0654296875,-0.1240234375,0.9990234375
88,1597841430476821,0.06597900390625,-0.0218505859375,0.68548583984375,-0.72479248046875,1.0625,0.4375,-0.25,0.0517578125,-0.10546875,0.986328125
89,1597841430499738,0.0662841796875,-0.0220947265625,0.685546875,-0.72467041015625,-2.4375,-0.1875,-0.5,0.0576171875,-0.123046875,0.9873046875
90,1597841430522735,0.0662841796875,-0.0220947265625,0.685546875,-0.72467041015625,-0.5,-0.125,-0.625,0.06494140625,-0.13818359375,0.99658203125
91,1597841430537760,0.0660400390625,-0.0218505859375,0.68560791015625,-0.724609375,1.9375,0.4375,-0.8125,0.06201171875,-0.12353515625,0.99365234375
92,1597841430560413,0.065673828125,-0.021484375,0.68572998046875,-0.72454833984375,2.4375,0.1875,-0.75,0.0625,-0.1201171875,0.98828125
93,1597841430582811,0.065673828125,-0.021484375,0.68572998046875,-0.72454833984375,0.1875,0.0,-0.8125,0.0615234375,-0.11767578125,0.98486328125
94,1597841430596738,0.0660400390625,-0.0216064453125,0.68572998046875,-0.7244873046875,-1.8125,-0.5625,-0.25,0.0625,-0.1279296875,0.98974609375
95,1597841430620758,0.0660400390625,-0.0216064453125,0.68572998046875,-0.7244873046875,-0.125,-0.375,0.1875,0.0693359375,-0.13623046875,0.99072265625
96,1597841430642732,0.065673828125,-0.02130126953125,0.685791015625,-0.7244873046875,2.8125,0.6875,-0.25,0.06640625,-0.12548828125,0.98583984375
97,1597841430657732,0.065673828125,-0.02130126953125,0.685791015625,-0.7244873046875,0.3125,0.4375,-0.3125,0.05859375,-0.11572265625,0.9921875
98,1597841430680547,0.065673828125,-0.021240234375,0.685791015625,-0.7244873046875,-0.6875,-0.5,0.375,0.0634765625,-0.11474609375,0.98291015625
99,1597841430702736,0.065673828125,-0.021240234375,0.685791015625,-0.7244873046875,-0.625,-0.0625,0.3125,0.0693359375,-0.1337890625,0.99267578125
100,1597841430723813,0.065673828125,-0.021240234375,0.685791015625,-0.7244873046875,0.9375,0.25,-0.1875,0.06005859375,-0.12744140625,0.98388671875
