index,timestamp,orientation_x,orientation_y,orientation_z,orientation_w,gyroscope_x,gyroscope_y,gyroscope_z,acceleration_x,acceleration_y,acceleration_z
0,1597841399883518,0.05029296875,-0.04278564453125,0.70819091796875,-0.70294189453125,1.1875,-3.25,3.25,0.01220703125,-0.10791015625,0.95751953125
1,1597841399905523,0.0511474609375,-0.04254150390625,0.7076416015625,-0.70343017578125,-2.5625,-4.8125,3.875,0.0146484375,-0.1259765625,0.94775390625
2,1597841399928609,0.05224609375,-0.04241943359375,0.70721435546875,-0.70379638671875,-1.625,-3.8125,3.0,0.03076171875,-0.16357421875,0.9755859375
3,1597841399943520,0.05157470703125,-0.041748046875,0.7071533203125,-0.70391845703125,6.5,-0.4375,1.0,0.00927734375,-0.1513671875,0.98876953125
4,1597841399966259,0.0494384765625,-0.040771484375,0.70745849609375,-0.703857421875,12.125,2.8125,-1.875,-0.01611328125,-0.119140625,0.99609375
5,1597841399987985,0.04742431640625,-0.03985595703125,0.7080078125,-0.70343017578125,8.5,2.1875,-3.8125,-0.025390625,-0.08203125,1.02734375
6,1597841400002986,0.04718017578125,-0.03961181640625,0.70855712890625,-0.70294189453125,1.0625,-1.25,-4.5625,-0.0087890625,-0.1083984375,0.984375
7,1597841400026013,0.04791259765625,-0.03973388671875,0.709228515625,-0.70220947265625,-2.25,-1.0625,-5.75,0.0283203125,-0.14453125,1.0068359375
8,1597841400047983,0.0479736328125,-0.0390625,0.70977783203125,-0.70172119140625,2.75,-1.5,-4.25,0.02685546875,-0.1298828125,1.00146484375
9,1597841400079984,0.04840087890625,-0.03875732421875,0.71014404296875,-0.70135498046875,-0.0625,-2.9375,-3.125,0.0166015625,-0.12548828125,0.9677734375
10,1597841400087085,0.0487060546875,-0.0384521484375,0.71038818359375,-0.7010498046875,1.5625,-1.125,-2.25,0.0302734375,-0.1484375,1.001953125
11,1597841400108406,0.04876708984375,-0.038818359375,0.7103271484375,-0.70111083984375,2.75,0.8125,0.625,0.0107421875,-0.18408203125,0.97265625
12,1597841400123039,0.04779052734375,-0.0379638671875,0.71026611328125,-0.70123291015625,8.4375,1.3125,0.625,0.02587890625,-0.13037109375,0.93505859375
13,1597841400156985,0.046142578125,-0.03509521484375,0.7108154296875,-0.70098876953125,19.0625,-3.0625,-3.5625,0.03662109375,-0.11962890625,0.96240234375
14,1597841400167984,0.04412841796875,-0.03253173828125,0.71099853515625,-0.7010498046875,20.0625,-0.3125,-0.75,0.04296875,-0.1337890625,1.01171875
15,1597841400185233,0.0404052734375,-0.02984619140625,0.7110595703125,-0.70135498046875,22.3125,5.125,1.4375,0.02392578125,-0.056640625,1.0546875
16,1597841400206346,0.03765869140625,-0.02850341796875,0.71124267578125,-0.70135498046875,11.8125,3.0,-0.75,-0.02587890625,-0.03076171875,1.03564453125
17,1597841400231462,0.038818359375,-0.0284423828125,0.7113037109375,-0.70123291015625,-8.5,-9.0625,-1.5,-0.04541015625,-0.02783203125,0.90869140625
18,1597841400245227,0.0428466796875,-0.0301513671875,0.71124267578125,-0.70098876953125,-21.625,-9.8125,-1.1875,0.0185546875,-0.123046875,0.9619140625
19,1597841400265974,0.0450439453125,-0.030517578125,0.71136474609375,-0.70068359375,-5.1875,-4.5,-1.625,0.06298828125,-0.18798828125,1.06005859375
20,1597841400288084,0.0433349609375,-0.028564453125,0.711669921875,-0.7005615234375,19.0625,1.625,-2.0,0.052734375,-0.16357421875,0.99560546875
21,1597841400304988,0.040283203125,-0.0264892578125,0.71246337890625,-0.70001220703125,19.3125,7.9375,-4.875,0.07421875,-0.0751953125,0.98828125
22,1597841400325986,0.0379638671875,-0.02618408203125,0.71295166015625,-0.69970703125,4.9375,7.5,-2.9375,0.00341796875,-0.00830078125,0.9736328125
23,1597841400349020,0.03814697265625,-0.0272216796875,0.7127685546875,-0.6998291015625,-8.0,5.125,1.375,0.041015625,-0.04931640625,1.0146484375
24,1597841400365001,0.03900146484375,-0.03070068359375,0.712646484375,-0.69970703125,-15.875,13.125,1.0,0.0498046875,-0.12255859375,0.95849609375
25,1597841400385872,0.0377197265625,-0.0325927734375,0.71234130859375,-0.7000732421875,4.75,16.875,3.75,0.06640625,-0.20947265625,1.03369140625
26,1597841400415862,0.0325927734375,-0.03289794921875,0.711181640625,-0.70147705078125,23.125,25.1875,11.75,0.05322265625,-0.150390625,1.04443359375
27,1597841400430952,0.02667236328125,-0.0325927734375,0.70892333984375,-0.70404052734375,23.625,18.4375,20.1875,-0.05712890625,-0.06494140625,1.03125
28,1597841400445985,0.026611328125,-0.03271484375,0.70654296875,-0.7064208984375,-12.375,-7.6875,18.625,-0.11865234375,0.0849609375,0.9931640625
29,1597841400467856,0.0308837890625,-0.03533935546875,0.70562744140625,-0.70703125,-38.9375,-11.25,5.0625,-0.06591796875,0.07177734375,0.8671875
30,1597841400485857,0.03741455078125,-0.0389404296875,0.7054443359375,-0.70672607421875,-42.0625,-9.875,-0.8125,0.0234375,-0.0908203125,0.97705078125
31,1597841400505973,0.04339599609375,-0.04205322265625,0.70526123046875,-0.70635986328125,-28.5,-7.375,-1.25,0.06103515625,-0.24365234375,1.0185546875
32,1597841400527857,0.04400634765625,-0.0400390625,0.70526123046875,-0.7064208984375,9.6875,-7.8125,0.1875,0.04638671875,-0.17333984375,0.96142578125
33,1597841400550861,0.04132080078125,-0.03619384765625,0.70587158203125,-0.70623779296875,24.3125,-1.8125,-3.5,0.04638671875,-0.07666015625,0.95458984375
34,1597841400565860,0.040771484375,-0.03485107421875,0.7060546875,-0.7061767578125,1.625,-1.5625,-0.9375,0.03466796875,-0.021484375,0.99560546875
35,1597841400587857,0.0428466796875,-0.0364990234375,0.705322265625,-0.7066650390625,-14.4375,-0.6875,4.9375,0.025390625,-0.12060546875,1.0126953125
36,1597841400610860,0.04327392578125,-0.0372314453125,0.705078125,-0.70684814453125,-4.1875,1.75,1.875,0.01904296875,-0.126953125,1.0146484375
37,1597841400625869,0.04278564453125,-0.03753662109375,0.70501708984375,-0.7069091796875,1.6875,3.25,0.8125,0.0048828125,-0.1298828125,1.0185546875
38,1597841400648601,0.042236328125,-0.0374755859375,0.7047119140625,-0.70721435546875,2.9375,1.0,2.1875,-0.0029296875,-0.123046875,0.99658203125
39,1597841400664995,0.04205322265625,-0.03680419921875,0.704345703125,-0.7076416015625,2.5,-3.375,3.1875,-0.0126953125,-0.09619140625,0.9912109375
40,1597841400685954,0.042724609375,-0.03662109375,0.70404052734375,-0.70794677734375,-2.375,-4.3125,2.0625,-0.0009765625,-0.1083984375,0.99462890625
41,1597841400707954,0.04327392578125,-0.03656005859375,0.70379638671875,-0.7081298828125,-1.125,-2.75,1.5625,0.00927734375,-0.12646484375,1.00537109375
42,1597841400724961,0.04315185546875,-0.03643798828125,0.70379638671875,-0.7081298828125,1.1875,-0.875,-0.125,-0.00390625,-0.115234375,0.990234375
43,1597841400745959,0.043212890625,-0.0367431640625,0.7037353515625,-0.70819091796875,-1.125,0.0625,0.25,-0.0029296875,-0.12060546875,0.99755859375
44,1597841400768352,0.04327392578125,-0.0367431640625,0.7037353515625,-0.70819091796875,0.5,0.5625,0.75,0.0146484375,-0.115234375,1.005859375
45,1597841400784427,0.042724609375,-0.03662109375,0.70367431640625,-0.70831298828125,1.25,1.875,1.0625,0.0107421875,-0.09619140625,1.015625
46,1597841400805360,0.04248046875,-0.03662109375,0.7037353515625,-0.708251953125,-1.375,-0.375,-0.5,-0.0078125,-0.0791015625,0.9873046875
47,1597841400828372,0.04345703125,-0.037353515625,0.70379638671875,-0.7081298828125,-7.0625,-0.1875,-0.875,0.0126953125,-0.1142578125,0.994140625
48,1597841400844362,0.04425048828125,-0.03826904296875,0.70367431640625,-0.7081298828125,-4.1875,1.125,0.375,0.02099609375,-0.15478515625,0.99853515625
49,1597841400865372,0.04388427734375,-0.03851318359375,0.70361328125,-0.7081298828125,1.5,2.75,0.5625,0.0107421875,-0.134765625,0.994140625
50,1597841400888367,0.0430908203125,-0.0382080078125,0.70355224609375,-0.70831298828125,4.125,2.125,0.875,0.00830078125,-0.10693359375,0.9892578125
51,1597841400906365,0.0426025390625,-0.0382080078125,0.7034912109375,-0.7083740234375,1.25,2.0,0.75,0.01025390625,-0.10595703125,0.9892578125
52,1597841400929366,0.04241943359375,-0.03839111328125,0.703369140625,-0.70849609375,0.25,2.5625,1.125,0.017578125,-0.11767578125,0.99560546875
53,1597841400948367,0.042236328125,-0.03875732421875,0.70318603515625,-0.70867919921875,-0.875,2.125,1.6875,0.00634765625,-0.111328125,0.98828125
54,1597841400966366,0.04229736328125,-0.03875732421875,0.7030029296875,-0.7088623046875,-0.625,0.0625,1.625,0.009765625,-0.1103515625,0.9794921875
55,1597841400986084,0.0423583984375,-0.0386962890625,0.7030029296875,-0.7088623046875,0.125,-0.0625,0.5,0.02001953125,-0.1162109375,0.9873046875
56,1597841401008018,0.042236328125,-0.03857421875,0.70281982421875,-0.70904541015625,0.8125,0.0625,1.25,0.009765625,-0.111328125,0.9990234375
57,1597841401026022,0.042236328125,-0.03851318359375,0.70281982421875,-0.70904541015625,0.6875,0.3125,0.875,0.01123046875,-0.1064453125,0.9990234375
58,1597841401046018,0.042236328125,-0.0384521484375,0.70281982421875,-0.70904541015625,-0.875,0.125,0.375,0.013671875,-0.0986328125,0.99072265625
59,1597841401070015,0.0426025390625,-0.03857421875,0.70281982421875,-0.70904541015625,-1.9375,0.0625,0.375,0.0205078125,-0.11572265625,0.99072265625
60,1597841401091139,0.0426025390625,-0.03857421875,0.70281982421875,-0.70904541015625,-0.8125,0.0,0.4375,0.01513671875,-0.1201171875,0.9951171875
61,1597841401107298,0.0423583984375,-0.03839111328125,0.7027587890625,-0.7091064453125,1.625,0.8125,0.1875,0.0146484375,-0.11083984375,1.00146484375
62,1597841401129029,0.04205322265625,-0.03814697265625,0.70281982421875,-0.7091064453125,1.375,1.0,0.125,0.01513671875,-0.10302734375,0.99365234375
63,1597841401151027,0.0421142578125,-0.03826904296875,0.7027587890625,-0.7091064453125,-1.75,-0.125,0.0625,0.00048828125,-0.1025390625,0.98974609375
64,1597841401166021,0.04254150390625,-0.038330078125,0.70281982421875,-0.70904541015625,-1.875,-0.75,-0.5625,0.01611328125,-0.11279296875,0.9931640625
65,1597841401188020,0.04254150390625,-0.03802490234375,0.7030029296875,-0.70892333984375,1.375,-0.0625,-1.125,0.0205078125,-0.1171875,0.99951171875
66,1597841401211067,0.04229736328125,-0.037841796875,0.703125,-0.70880126953125,2.125,0.375,-1.0625,0.0078125,-0.12255859375,0.99365234375
67,1597841401226022,0.04229736328125,-0.037841796875,0.703125,-0.70880126953125,0.8125,-0.5625,0.125,0.005859375,-0.1083984375,0.99609375
68,1597841401248017,0.04229736328125,-0.03778076171875,0.703125,-0.70880126953125,0.5625,-0.75,0.0,0.01318359375,-0.1005859375,0.9970703125
69,1597841401271131,0.0423583984375,-0.037841796875,0.70318603515625,-0.708740234375,-1.125,0.125,-0.5625,0.00732421875,-0.109375,0.9970703125
70,1597841401286151,0.04266357421875,-0.03802490234375,0.70318603515625,-0.70867919921875,-1.5625,-0.375,-0.25,0.0087890625,-0.11669921875,0.984375
71,1597841401310151,0.042724609375,-0.03802490234375,0.70318603515625,-0.70867919921875,-0.5,0.0625,0.25,0.0185546875,-0.1220703125,0.98876953125
72,1597841401331229,0.04266357421875,-0.03778076171875,0.703125,-0.70880126953125,1.3125,-0.3125,0.625,0.013671875,-0.11669921875,0.9951171875
73,1597841401346150,0.04229736328125,-0.037353515625,0.703125,-0.7088623046875,2.25,0.5,0.4375,0.01806640625,-0.103515625,1.0029296875
74,1597841401368149,0.04229736328125,-0.037353515625,0.703125,-0.7088623046875,0.6875,0.625,0.3125,0.0107421875,-0.103515625,0.99072265625
75,1597841401391279,0.04241943359375,-0.03759765625,0.7030029296875,-0.70892333984375,-1.8125,0.3125,0.75,0.001953125,-0.1083984375,0.9970703125
76,1597841401406252,0.04241943359375,-0.03759765625,0.7030029296875,-0.70892333984375,-0.375,-0.5625,0.625,0.00830078125,-0.1162109375,0.99658203125
77,1597841401428440,0.0421142578125,-0.0372314453125,0.70306396484375,-0.70892333984375,2.6875,0.0,-0.3125,0.01123046875,-0.11474609375,1.0
78,1597841401451255,0.0416259765625,-0.03692626953125,0.703125,-0.7088623046875,2.375,0.625,-0.625,0.00634765625,-0.0986328125,0.998046875
79,1597841401466252,0.0416259765625,-0.036865234375,0.703125,-0.7088623046875,-0.8125,0.4375,-0.5625,0.00634765625,-0.1064453125,0.9892578125
80,1597841401488254,0.0419921875,-0.037109375,0.70318603515625,-0.708740234375,-2.6875,-0.625,-0.6875,0.0068359375,-0.10693359375,0.9873046875
81,1597841401510257,0.04254150390625,-0.037353515625,0.7032470703125,-0.70867919921875,-2.1875,-0.625,-0.5625,0.0146484375,-0.12646484375,0.986328125
82,1597841401527250,0.04254150390625,-0.03717041015625,0.70330810546875,-0.7086181640625,1.75,0.25,-0.3125,0.02294921875,-0.13037109375,0.99755859375
83,1597841401548255,0.0421142578125,-0.03692626953125,0.70330810546875,-0.70867919921875,2.625,1.75,0.375,0.01953125,-0.11376953125,0.99267578125
84,1597841401570487,0.0416259765625,-0.03692626953125,0.7032470703125,-0.70880126953125,1.0625,1.625,0.5625,0.0029296875,-0.0966796875,0.9873046875
85,1597841401587985,0.0416259765625,-0.03704833984375,0.70306396484375,-0.70892333984375,-0.875,0.75,1.25,0.0068359375,-0.10498046875,0.9912109375
86,1597841401608007,0.0416259765625,-0.03704833984375,0.70306396484375,-0.70892333984375,-0.5625,0.9375,0.9375,0.0126953125,-0.115234375,0.99853515625
87,1597841401630981,0.04144287109375,-0.03717041015625,0.7030029296875,-0.708984375,1.25,1.8125,0.8125,0.0126953125,-0.125,0.99853515625
88,1597841401646988,0.040771484375,-0.03704833984375,0.702880859375,-0.70916748046875,2.875,1.9375,1.1875,0.00439453125,-0.10595703125,0.9912109375
89,1597841401668078,0.04046630859375,-0.036865234375,0.7027587890625,-0.7093505859375,0.0625,0.0,1.1875,-0.001953125,-0.0849609375,0.9873046875
90,1597841401690582,0.04107666015625,-0.03704833984375,0.70269775390625,-0.70928955078125,-3.0,-1.3125,0.0,0.0107421875,-0.109375,0.98388671875
91,1597841401707582,0.0411376953125,-0.0369873046875,0.70269775390625,-0.70928955078125,-0.8125,-0.4375,-0.25,0.02099609375,-0.12060546875,0.994140625
92,1597841401735581,0.040771484375,-0.03662109375,0.7027587890625,-0.7093505859375,3.0,0.5,0.0625,0.01806640625,-0.10986328125,0.998046875
93,1597841401750578,0.040771484375,-0.03656005859375,0.7027587890625,-0.7093505859375,0.9375,0.5625,-0.0625,0.0009765625,-0.09521484375,0.982421875
94,1597841401767578,0.041015625,-0.0364990234375,0.7027587890625,-0.70928955078125,-1.4375,-1.1875,-0.3125,0.009765625,-0.0986328125,0.98974609375
95,1597841401788791,0.04144287109375,-0.036376953125,0.70281982421875,-0.709228515625,-1.375,-1.5,-0.5,0.013671875,-0.1123046875,0.99658203125
96,1597841401810651,0.04144287109375,-0.036376953125,0.70281982421875,-0.709228515625,0.0,-0.5625,-0.5,0.0146484375,-0.11474609375,0.99755859375
97,1597841401828651,0.04132080078125,-0.03631591796875,0.70294189453125,-0.7091064453125,1.25,0.9375,-0.9375,0.0166015625,-0.11669921875,0.99267578125
98,1597841401851652,0.041015625,-0.0361328125,0.70294189453125,-0.7091064453125,1.0625,0.4375,-0.0625,0.00537109375,-0.09423828125,0.99853515625
99,1597841401870654,0.041015625,-0.0361328125,0.70294189453125,-0.70916748046875,-1.0,0.125,0.4375,0.009765625,-0.1044921875,0.99755859375
100,1597841401888656,0.041015625,-0.0361328125,0.70294189453125,-0.7091064453125,-0.8125,0.75,0.8125,0.00732421875,-0.11181640625,1.0068359375
101,1597841401908651,0.04058837890625,-0.03594970703125,0.70294189453125,-0.709228515625,1.5625,1.0625,0.4375,0.00537109375,-0.10107421875,1.00244140625
