index,timestamp,orientation_x,orientation_y,orientation_z,orientation_w,gyroscope_x,gyroscope_y,gyroscope_z,acceleration_x,acceleration_y,acceleration_z
0,1597843824361370,-0.2967529296875,-0.08221435546875,-0.2542724609375,0.91680908203125,1.1875,-0.375,0.0625,0.3046875,-0.50830078125,0.82177734375
1,1597843824390375,-0.2967529296875,-0.0821533203125,-0.2542724609375,0.91680908203125,0.625,-0.125,0.0625,0.3056640625,-0.51611328125,0.82568359375
2,1597843824399370,-0.29638671875,-0.08233642578125,-0.25421142578125,0.91693115234375,2.5,-0.4375,-0.125,0.3056640625,-0.5146484375,0.82666015625
3,1597843824421372,-0.29595947265625,-0.08258056640625,-0.25421142578125,0.91705322265625,2.5625,-0.4375,-0.3125,0.3076171875,-0.50390625,0.82177734375
4,1597843824443489,-0.29571533203125,-0.082763671875,-0.25421142578125,0.9171142578125,1.8125,-0.6875,-0.3125,0.30859375,-0.51025390625,0.8212890625
5,1597843824459497,-0.29522705078125,-0.08306884765625,-0.25408935546875,0.917236328125,2.8125,-1.125,-0.1875,0.306640625,-0.5068359375,0.83154296875
6,1597843824482082,-0.29473876953125,-0.0833740234375,-0.2540283203125,0.91741943359375,3.4375,-0.9375,0.0,0.3076171875,-0.513671875,0.83251953125
7,1597843824502493,-0.29443359375,-0.08349609375,-0.25396728515625,0.91748046875,1.5,-0.9375,-0.25,0.30029296875,-0.50341796875,0.833984375
8,1597843824519578,-0.29443359375,-0.08349609375,-0.25396728515625,0.91748046875,-0.25,-0.75,-0.375,0.30224609375,-0.50048828125,0.826171875
9,1597843824541494,-0.29443359375,-0.08349609375,-0.25396728515625,0.91748046875,0.375,-0.5,-0.8125,0.3056640625,-0.513671875,0.82080078125
10,1597843824564550,-0.294189453125,-0.08367919921875,-0.25396728515625,0.91754150390625,1.9375,-0.3125,-0.4375,0.31103515625,-0.50830078125,0.82177734375
11,1597843824580493,-0.29486083984375,-0.08392333984375,-0.253662109375,0.91741943359375,-5.5625,-4.3125,1.375,0.30517578125,-0.4970703125,0.873046875
12,1597843824602073,-0.2987060546875,-0.08441162109375,-0.2535400390625,0.9161376953125,-26.1875,-10.125,0.625,0.3134765625,-0.4736328125,0.8837890625
13,1597843824624606,-0.3045654296875,-0.08404541015625,-0.25396728515625,0.91412353515625,-34.9375,-6.25,-1.25,0.33740234375,-0.54443359375,0.85302734375
14,1597843824638692,-0.30792236328125,-0.0830078125,-0.25390625,0.91314697265625,-16.25,-0.1875,0.3125,0.310546875,-0.61376953125,0.81005859375
15,1597843824667604,-0.30731201171875,-0.082763671875,-0.2535400390625,0.9134521484375,7.3125,0.6875,0.375,0.28564453125,-0.58056640625,0.78857421875
16,1597843824684605,-0.3062744140625,-0.083740234375,-0.253173828125,0.913818359375,4.6875,-5.375,0.75,0.28857421875,-0.47314453125,0.8037109375
17,1597843824698729,-0.30999755859375,-0.083984375,-0.25311279296875,0.91253662109375,-27.5,-8.6875,1.3125,0.29833984375,-0.427734375,0.822265625
18,1597843824721608,-0.3175048828125,-0.0830078125,-0.25213623046875,0.91033935546875,-46.25,-8.9375,7.9375,0.32080078125,-0.52392578125,0.818359375
19,1597843824744608,-0.32159423828125,-0.08111572265625,-0.25103759765625,0.90936279296875,-22.4375,1.625,8.6875,0.30419921875,-0.58642578125,0.76318359375
20,1597843824758609,-0.32275390625,-0.07769775390625,-0.2506103515625,0.90936279296875,-7.3125,14.875,7.125,0.2666015625,-0.57080078125,0.7216796875
21,1597843824781688,-0.321533203125,-0.0731201171875,-0.25079345703125,0.91015625,2.5,25.8125,7.375,0.30517578125,-0.60009765625,0.8154296875
22,1597843824804610,-0.32073974609375,-0.06854248046875,-0.25067138671875,0.91082763671875,-5.3125,24.75,10.9375,0.302734375,-0.52685546875,0.861328125
23,1597843824818614,-0.32421875,-0.06292724609375,-0.2518310546875,0.90966796875,-29.3125,27.375,5.3125,0.30859375,-0.55615234375,0.794921875
24,1597843824841609,-0.32769775390625,-0.05889892578125,-0.25201416015625,0.90863037109375,-21.5,18.0,5.875,0.30712890625,-0.64990234375,0.7783203125
25,1597843824864608,-0.32421875,-0.05712890625,-0.25189208984375,0.9100341796875,17.9375,15.3125,5.375,0.31201171875,-0.615234375,0.86181640625
26,1597843824885607,-0.319580078125,-0.05499267578125,-0.25177001953125,0.91180419921875,18.0,17.9375,7.8125,0.28515625,-0.5029296875,0.87890625
27,1597843824901608,-0.32000732421875,-0.05169677734375,-0.25115966796875,0.91204833984375,-7.4375,16.0625,10.125,0.27783203125,-0.57177734375,0.830078125
28,1597843824924616,-0.3194580078125,-0.0489501953125,-0.250244140625,0.91265869140625,3.625,13.875,9.6875,0.25439453125,-0.61962890625,0.79541015625
29,1597843824945605,-0.316650390625,-0.0477294921875,-0.24896240234375,0.9140625,19.5625,9.3125,9.75,0.2509765625,-0.59814453125,0.7626953125
30,1597843824963607,-0.312744140625,-0.0472412109375,-0.24786376953125,0.91571044921875,23.875,7.8125,8.6875,0.25830078125,-0.5478515625,0.77197265625
31,1597843824984661,-0.30999755859375,-0.04656982421875,-0.24725341796875,0.91680908203125,15.0625,8.1875,6.25,0.25244140625,-0.51123046875,0.76953125
32,1597843825005614,-0.30926513671875,-0.0452880859375,-0.246826171875,0.91729736328125,3.875,8.25,5.5,0.24365234375,-0.53271484375,0.76416015625
33,1597843825021941,-0.30859375,-0.04400634765625,-0.2462158203125,0.917724609375,4.3125,7.125,5.4375,0.22705078125,-0.5537109375,0.77001953125
34,1597843825044614,-0.30743408203125,-0.04296875,-0.2457275390625,0.91827392578125,6.75,6.3125,4.8125,0.22314453125,-0.5439453125,0.77685546875
35,1597843825065703,-0.30682373046875,-0.0419921875,-0.245361328125,0.91864013671875,3.8125,5.4375,3.6875,0.21875,-0.54248046875,0.77490234375
36,1597843825081615,-0.30694580078125,-0.041259765625,-0.24517822265625,0.918701171875,0.0,3.875,2.1875,0.22412109375,-0.54638671875,0.771484375
37,1597843825104681,-0.30706787109375,-0.04083251953125,-0.24505615234375,0.918701171875,0.125,2.5,1.375,0.22802734375,-0.55224609375,0.7841796875
38,1597843825125621,-0.3067626953125,-0.04071044921875,-0.244873046875,0.9188232421875,1.8125,1.25,1.5,0.2314453125,-0.54150390625,0.79931640625
39,1597843825142215,-0.3067626953125,-0.0404052734375,-0.24481201171875,0.91888427734375,-0.5625,1.25,0.875,0.22314453125,-0.54248046875,0.80908203125
40,1597843825164621,-0.30718994140625,-0.04010009765625,-0.24481201171875,0.91876220703125,-2.125,0.625,0.25,0.21923828125,-0.55615234375,0.81005859375
41,1597843825185617,-0.3074951171875,-0.040283203125,-0.24462890625,0.918701171875,-0.6875,-1.5,0.25,0.22412109375,-0.55908203125,0.80517578125
42,1597843825201665,-0.30712890625,-0.04071044921875,-0.2445068359375,0.9188232421875,2.6875,-2.4375,-0.3125,0.2216796875,-0.5478515625,0.81591796875
43,1597843825224619,-0.30706787109375,-0.04095458984375,-0.244384765625,0.9188232421875,0.3125,-1.6875,0.375,0.2275390625,-0.55419921875,0.82568359375
44,1597843825245621,-0.30706787109375,-0.04095458984375,-0.244384765625,0.9188232421875,-0.0625,-0.875,0.5,0.22607421875,-0.55615234375,0.82275390625
45,1597843825261619,-0.30712890625,-0.04095458984375,-0.244384765625,0.9188232421875,0.125,-0.125,0.1875,0.22705078125,-0.5576171875,0.81591796875
46,1597843825284619,-0.30694580078125,-0.0411376953125,-0.2442626953125,0.9189453125,1.6875,-1.25,0.0,0.2265625,-0.56201171875,0.82470703125
47,1597843825305134,-0.30657958984375,-0.04144287109375,-0.244140625,0.9190673828125,2.3125,-1.625,0.1875,0.22705078125,-0.55322265625,0.83203125
48,1597843825322053,-0.3065185546875,-0.04144287109375,-0.244140625,0.9190673828125,-0.6875,-1.0,0.125,0.2275390625,-0.55224609375,0.826171875
49,1597843825344049,-0.3067626953125,-0.04132080078125,-0.2440185546875,0.91900634765625,-1.0625,-0.125,0.125,0.22216796875,-0.56591796875,0.82763671875
50,1597843825365045,-0.30657958984375,-0.04132080078125,-0.24395751953125,0.91912841796875,1.3125,-0.25,0.5,0.2265625,-0.5537109375,0.82421875
51,1597843825382048,-0.30633544921875,-0.04150390625,-0.243896484375,0.919189453125,1.375,-0.375,0.25,0.2353515625,-0.55078125,0.82421875
52,1597843825405059,-0.30633544921875,-0.04150390625,-0.243896484375,0.919189453125,-0.6875,0.125,0.125,0.22607421875,-0.5546875,0.82763671875
53,1597843825425765,-0.30633544921875,-0.04150390625,-0.243896484375,0.919189453125,0.0,0.375,-0.25,0.2265625,-0.55810546875,0.8154296875
54,1597843825442061,-0.3060302734375,-0.04156494140625,-0.24383544921875,0.9193115234375,1.9375,0.25,0.125,0.23095703125,-0.55322265625,0.826171875
55,1597843825464054,-0.3056640625,-0.04150390625,-0.2437744140625,0.91943359375,1.75,0.75,0.625,0.2314453125,-0.5517578125,0.830078125
56,1597843825485277,-0.3056640625,-0.04150390625,-0.2437744140625,0.91943359375,0.1875,0.6875,0.375,0.22900390625,-0.54736328125,0.828125
57,1597843825502271,-0.3056640625,-0.04150390625,-0.2437744140625,0.91943359375,0.4375,0.3125,0.4375,0.2265625,-0.5556640625,0.81982421875
58,1597843825524556,-0.30535888671875,-0.0416259765625,-0.24371337890625,0.9195556640625,2.4375,-0.4375,0.0,0.22314453125,-0.5517578125,0.810546875
59,1597843825546557,-0.304931640625,-0.04180908203125,-0.24359130859375,0.91973876953125,3.4375,-0.75,0.0625,0.22412109375,-0.55224609375,0.8154296875
60,1597843825561648,-0.30450439453125,-0.0419921875,-0.24346923828125,0.91986083984375,2.4375,-0.8125,0.375,0.22412109375,-0.54541015625,0.82177734375
61,1597843825584580,-0.30450439453125,-0.0419921875,-0.24346923828125,0.91986083984375,0.8125,-0.9375,0.6875,0.2265625,-0.5498046875,0.8212890625
62,1597843825606707,-0.304443359375,-0.04217529296875,-0.2432861328125,0.919921875,1.375,-1.375,0.4375,0.228515625,-0.55615234375,0.822265625
63,1597843825621746,-0.30401611328125,-0.04248046875,-0.24310302734375,0.92010498046875,3.125,-1.4375,0.4375,0.22314453125,-0.548828125,0.82275390625
64,1597843825644670,-0.30364990234375,-0.042724609375,-0.24298095703125,0.9202880859375,2.625,-1.125,0.5,0.22802734375,-0.54638671875,0.82275390625
65,1597843825667024,-0.30340576171875,-0.04290771484375,-0.24273681640625,0.92041015625,2.0,-1.375,0.75,0.22607421875,-0.54736328125,0.82275390625
66,1597843825681383,-0.30316162109375,-0.043212890625,-0.24261474609375,0.9205322265625,1.5,-1.375,0.25,0.23193359375,-0.544921875,0.82666015625
67,1597843825704372,-0.3031005859375,-0.04339599609375,-0.24237060546875,0.92059326171875,1.375,-1.75,0.875,0.22412109375,-0.55517578125,0.8251953125
68,1597843825726374,-0.30279541015625,-0.04364013671875,-0.2421875,0.92071533203125,2.5625,-1.125,0.5625,0.2275390625,-0.5458984375,0.81982421875
69,1597843825741387,-0.30242919921875,-0.0438232421875,-0.24200439453125,0.9208984375,2.0625,-1.1875,0.6875,0.22607421875,-0.537109375,0.8271484375
70,1597843825764617,-0.30224609375,-0.04412841796875,-0.2418212890625,0.92095947265625,1.5,-1.4375,0.5625,0.23046875,-0.53857421875,0.8193359375
71,1597843825788373,-0.30230712890625,-0.0443115234375,-0.24163818359375,0.9210205078125,0.125,-1.5625,0.5,0.22900390625,-0.5498046875,0.830078125
72,1597843825800975,-0.30218505859375,-0.04443359375,-0.24151611328125,0.92108154296875,1.0,-0.9375,0.25,0.22802734375,-0.54248046875,0.82421875
73,1597843825824006,-0.3018798828125,-0.0445556640625,-0.241455078125,0.921142578125,1.3125,-0.4375,0.3125,0.2314453125,-0.54296875,0.8349609375
74,1597843825846979,-0.3018798828125,-0.0445556640625,-0.241455078125,0.92120361328125,0.5,-0.25,0.0,0.22802734375,-0.54345703125,0.8388671875
75,1597843825860985,-0.3018798828125,-0.0445556640625,-0.241455078125,0.92120361328125,0.6875,-0.375,0.0625,0.232421875,-0.54638671875,0.8271484375
76,1597843825884067,-0.30169677734375,-0.04473876953125,-0.24139404296875,0.9212646484375,1.4375,-0.6875,0.0,0.23095703125,-0.54052734375,0.82421875
77,1597843825907046,-0.301513671875,-0.044921875,-0.2413330078125,0.92132568359375,1.1875,-0.5625,0.1875,0.2373046875,-0.541015625,0.82470703125
78,1597843825921230,-0.301513671875,-0.044921875,-0.2413330078125,0.92132568359375,0.5625,0.1875,0.0625,0.23193359375,-0.54345703125,0.83447265625
79,1597843825944656,-0.301513671875,-0.044921875,-0.2413330078125,0.92132568359375,-0.6875,0.5,0.375,0.22900390625,-0.54296875,0.83447265625
80,1597843825967228,-0.301513671875,-0.044921875,-0.2413330078125,0.92132568359375,0.875,0.625,0.1875,0.22705078125,-0.54248046875,0.8212890625
81,1597843825981230,-0.30133056640625,-0.04486083984375,-0.2413330078125,0.92138671875,1.375,0.25,-0.0625,0.2275390625,-0.546875,0.82568359375
82,1597843826004436,-0.301025390625,-0.04473876953125,-0.24127197265625,0.9215087890625,1.5,0.6875,0.25,0.22607421875,-0.54052734375,0.82568359375
83,1597843826026313,-0.301025390625,-0.04473876953125,-0.24127197265625,0.9215087890625,0.375,0.875,0.3125,0.2236328125,-0.541015625,0.828125
84,1597843826047248,-0.3011474609375,-0.0445556640625,-0.24127197265625,0.92144775390625,-0.6875,1.125,0.3125,0.23388671875,-0.54541015625,0.81884765625
85,1597843826064370,-0.3009033203125,-0.04443359375,-0.2413330078125,0.92156982421875,1.875,0.875,0.0,0.22998046875,-0.54931640625,0.8271484375
86,1597843826087246,-0.3006591796875,-0.04437255859375,-0.24127197265625,0.921630859375,1.125,0.1875,0.1875,0.22314453125,-0.53955078125,0.82373046875
87,1597843826108251,-0.30047607421875,-0.04443359375,-0.2412109375,0.92169189453125,1.0625,-0.3125,0.0,0.2265625,-0.53662109375,0.82763671875
88,1597843826124249,-0.30029296875,-0.04443359375,-0.2410888671875,0.92181396484375,1.0,0.125,0.625,0.2265625,-0.53955078125,0.82763671875
89,1597843826146244,-0.30029296875,-0.04443359375,-0.2410888671875,0.92181396484375,-0.0625,0.25,0.125,0.2275390625,-0.53515625,0.826171875
90,1597843826167294,-0.300537109375,-0.044189453125,-0.2410888671875,0.9217529296875,-1.25,0.75,0.1875,0.22705078125,-0.54541015625,0.82275390625
91,1597843826184337,-0.3004150390625,-0.04425048828125,-0.2410888671875,0.9217529296875,1.375,-0.3125,0.0,0.2275390625,-0.54541015625,0.82080078125
92,1597843826206351,-0.30035400390625,-0.04425048828125,-0.2410888671875,0.9217529296875,0.0625,-0.125,0.125,0.22705078125,-0.53173828125,0.82763671875
93,1597843826227377,-0.30059814453125,-0.0443115234375,-0.24102783203125,0.92169189453125,-1.0625,-0.5,0.0,0.23095703125,-0.544921875,0.82373046875
94,1597843826244669,-0.30059814453125,-0.0443115234375,-0.24102783203125,0.92169189453125,-0.25,-0.375,0.1875,0.22998046875,-0.54296875,0.82763671875
95,1597843826266348,-0.3006591796875,-0.0443115234375,-0.24102783203125,0.92169189453125,-0.125,-0.9375,0.5,0.2216796875,-0.54296875,0.82080078125
96,1597843826287349,-0.30078125,-0.04443359375,-0.24090576171875,0.92169189453125,-0.5625,-1.4375,0.375,0.224609375,-0.5419921875,0.8251953125
97,1597843826312032,-0.30078125,-0.04461669921875,-0.24090576171875,0.92169189453125,0.1875,-1.25,-0.4375,0.224609375,-0.5322265625,0.8193359375
98,1597843826326782,-0.30078125,-0.04461669921875,-0.2408447265625,0.92169189453125,-0.5625,-0.6875,-0.1875,0.2255859375,-0.5478515625,0.8232421875
99,1597843826347617,-0.30078125,-0.0445556640625,-0.2408447265625,0.92169189453125,0.0625,-1.0,0.0625,0.22265625,-0.54736328125,0.8251953125
