index,timestamp,orientation_x,orientation_y,orientation_z,orientation_w,gyroscope_x,gyroscope_y,gyroscope_z,acceleration_x,acceleration_y,acceleration_z
0,1598010022629381,-0.1907958984375,-0.1314697265625,0.21270751953125,0.94921875,-3.9375,-0.375,-1.8125,0.16650390625,-0.42822265625,0.91162109375
1,1598010022645384,-0.19140625,-0.13153076171875,0.21240234375,0.94915771484375,-3.75,0.25,-1.4375,0.166015625,-0.43408203125,0.91552734375
2,1598010022667380,-0.19207763671875,-0.1317138671875,0.2122802734375,0.94903564453125,-3.3125,-0.75,-0.5,0.15966796875,-0.4404296875,0.9091796875
3,1598010022688382,-0.19256591796875,-0.1318359375,0.21234130859375,0.94891357421875,-1.875,-1.5,-0.125,0.15576171875,-0.44873046875,0.9130859375
4,1598010022705382,-0.1922607421875,-0.13177490234375,0.2122802734375,0.948974609375,2.0625,-0.4375,-0.8125,0.1669921875,-0.4404296875,0.9208984375
5,1598010022727468,-0.191650390625,-0.13177490234375,0.212158203125,0.94915771484375,2.75,-0.1875,-1.0625,0.17822265625,-0.419921875,0.9169921875
6,1598010022748381,-0.1915283203125,-0.13177490234375,0.212158203125,0.94915771484375,0.5,-0.3125,-0.375,0.169921875,-0.40234375,0.9140625
7,1598010022765426,-0.19183349609375,-0.13189697265625,0.212158203125,0.9490966796875,-3.25,-0.625,0.375,0.1669921875,-0.40283203125,0.900390625
8,1598010022787383,-0.1929931640625,-0.13201904296875,0.2120361328125,0.9488525390625,-6.625,-0.4375,-0.25,0.1552734375,-0.43115234375,0.90185546875
9,1598010022808473,-0.19427490234375,-0.1322021484375,0.2117919921875,0.9486083984375,-7.1875,0.25,-0.8125,0.16455078125,-0.4423828125,0.9130859375
10,1598010022825459,-0.1953125,-0.1322021484375,0.2115478515625,0.948486328125,-6.5,1.0,-0.4375,0.1669921875,-0.4345703125,0.91748046875
11,1598010022847459,-0.196044921875,-0.13214111328125,0.2115478515625,0.94830322265625,-4.5,0.625,0.875,0.16796875,-0.44140625,0.92431640625
12,1598010022868459,-0.1964111328125,-0.132080078125,0.2117919921875,0.94818115234375,-1.375,-0.4375,1.25,0.16064453125,-0.45068359375,0.921875
13,1598010022885472,-0.19647216796875,-0.1322021484375,0.2120361328125,0.9481201171875,-1.0,-1.5,1.125,0.162109375,-0.4375,0.9169921875
14,1598010022913461,-0.19659423828125,-0.13226318359375,0.2122802734375,0.947998046875,-2.75,-1.375,1.125,0.16064453125,-0.40966796875,0.9189453125
15,1598010022928462,-0.19757080078125,-0.132568359375,0.21240234375,0.94775390625,-7.625,-2.1875,1.1875,0.15185546875,-0.42138671875,0.92236328125
16,1598010022945766,-0.1990966796875,-0.1331787109375,0.2122802734375,0.9473876953125,-9.5,-2.375,-0.125,0.15673828125,-0.4404296875,0.90185546875
17,1598010022967460,-0.20062255859375,-0.13385009765625,0.212158203125,0.94696044921875,-7.8125,-1.75,-0.0625,0.17236328125,-0.474609375,0.890625
18,1598010022988459,-0.201416015625,-0.13427734375,0.21221923828125,0.94671630859375,-3.5,-1.1875,0.5,0.17822265625,-0.46923828125,0.8984375
19,1598010023004586,-0.20135498046875,-0.13427734375,0.21221923828125,0.94677734375,-1.0,-0.375,0.5,0.1708984375,-0.4375,0.90869140625
20,1598010023027993,-0.20196533203125,-0.13433837890625,0.21240234375,0.94659423828125,-4.1875,-0.75,1.5,0.1611328125,-0.43359375,0.89990234375
21,1598010023048510,-0.20294189453125,-0.1343994140625,0.21246337890625,0.94635009765625,-6.75,-0.5,0.9375,0.1552734375,-0.4453125,0.91650390625
22,1598010023064785,-0.20391845703125,-0.13446044921875,0.212158203125,0.9461669921875,-4.875,0.375,-1.5625,0.1630859375,-0.47216796875,0.91162109375
23,1598010023087693,-0.204833984375,-0.13421630859375,0.2115478515625,0.9461669921875,-4.75,4.0625,-1.6875,0.19189453125,-0.47705078125,0.9306640625
24,1598010023109735,-0.20562744140625,-0.1331787109375,0.211181640625,0.94622802734375,-3.0,7.4375,-0.0625,0.18359375,-0.4755859375,0.92529296875
25,1598010023124735,-0.20623779296875,-0.13140869140625,0.21124267578125,0.9462890625,0.75,8.5,1.5,0.14013671875,-0.5,0.9306640625
26,1598010023147811,-0.206298828125,-0.12945556640625,0.2117919921875,0.94647216796875,4.0,9.1875,4.4375,0.15283203125,-0.49853515625,0.9423828125
27,1598010023170394,-0.20391845703125,-0.12646484375,0.21136474609375,0.94744873046875,15.375,17.1875,-0.375,0.20849609375,-0.44482421875,0.9501953125
28,1598010023190931,-0.20233154296875,-0.121826171875,0.21136474609375,0.94842529296875,10.6875,24.4375,4.3125,0.169921875,-0.4052734375,0.98828125
29,1598010023207652,-0.20465087890625,-0.11712646484375,0.21148681640625,0.948486328125,-10.5625,26.125,7.25,0.10986328125,-0.4052734375,0.94091796875
30,1598010023229655,-0.20947265625,-0.11334228515625,0.210693359375,0.94805908203125,-23.3125,30.5625,5.5625,0.18212890625,-0.44580078125,0.908203125
31,1598010023250645,-0.21636962890625,-0.10888671875,0.21075439453125,0.947021484375,-29.4375,36.1875,13.125,0.1943359375,-0.55224609375,0.94775390625
32,1598010023267648,-0.22088623046875,-0.1004638671875,0.21258544921875,0.94647216796875,-10.875,49.875,24.25,0.12744140625,-0.5556640625,0.9697265625
33,1598010023289650,-0.2244873046875,-0.09002685546875,0.2147216796875,0.94622802734375,-3.875,56.4375,26.125,0.0546875,-0.541015625,0.96875
34,1598010023310886,-0.2276611328125,-0.07861328125,0.2178955078125,0.94573974609375,-0.1875,58.5,32.1875,0.00732421875,-0.5361328125,0.955078125
35,1598010023327884,-0.2318115234375,-0.06719970703125,0.22149658203125,0.94482421875,-6.3125,58.9375,36.0,-0.02294921875,-0.505859375,0.91259765625
36,1598010023349890,-0.23614501953125,-0.05657958984375,0.22662353515625,0.94317626953125,-7.125,53.1875,43.9375,-0.04052734375,-0.52587890625,0.89013671875
37,1598010023370884,-0.2392578125,-0.04644775390625,0.23150634765625,0.9417724609375,-2.8125,48.5,41.1875,-0.0771484375,-0.49609375,0.8857421875
38,1598010023387886,-0.24072265625,-0.036865234375,0.23516845703125,0.94091796875,5.0625,46.1875,33.4375,-0.07666015625,-0.4814453125,0.888671875
39,1598010023410403,-0.24102783203125,-0.02825927734375,0.2379150390625,0.9404296875,7.375,42.0625,26.75,-0.078125,-0.41796875,0.86328125
40,1598010023430458,-0.2420654296875,-0.0223388671875,0.24072265625,0.93963623046875,-1.3125,28.875,24.25,-0.0751953125,-0.39697265625,0.85107421875
41,1598010023447457,-0.24456787109375,-0.0189208984375,0.24365234375,0.93829345703125,-12.6875,18.25,22.5625,-0.0693359375,-0.39697265625,0.8115234375
42,1598010023470770,-0.24810791015625,-0.0174560546875,0.2459716796875,0.936767578125,-18.625,9.5,17.3125,-0.08154296875,-0.44482421875,0.81640625
43,1598010023491457,-0.251220703125,-0.01727294921875,0.24774169921875,0.93548583984375,-15.1875,2.625,12.1875,-0.08251953125,-0.48974609375,0.806640625
44,1598010023507926,-0.25225830078125,-0.017578125,0.24884033203125,0.9349365234375,-3.0,0.6875,7.6875,-0.0498046875,-0.50537109375,0.80419921875
45,1598010023530925,-0.2508544921875,-0.01727294921875,0.2493896484375,0.9351806640625,8.8125,1.5625,4.625,-0.0458984375,-0.4677734375,0.8427734375
46,1598010023550917,-0.2491455078125,-0.01678466796875,0.249755859375,0.935546875,9.3125,1.0625,2.4375,-0.06591796875,-0.4501953125,0.86181640625
47,1598010023567919,-0.24853515625,-0.01702880859375,0.24981689453125,0.9356689453125,1.625,-1.5,0.25,-0.08056640625,-0.43701171875,0.85205078125
48,1598010023589919,-0.24908447265625,-0.01800537109375,0.249755859375,0.93548583984375,-5.3125,-3.375,-1.1875,-0.07275390625,-0.462890625,0.86474609375
49,1598010023610986,-0.2493896484375,-0.01922607421875,0.24945068359375,0.93548583984375,-3.5625,-5.25,-3.25,-0.083984375,-0.47119140625,0.876953125
50,1598010023627993,-0.24969482421875,-0.02069091796875,0.24884033203125,0.935546875,-3.5,-5.875,-5.0,-0.07568359375,-0.4931640625,0.8955078125
51,1598010023650336,-0.24920654296875,-0.0218505859375,0.24810791015625,0.93585205078125,0.3125,-4.8125,-5.4375,-0.0712890625,-0.49072265625,0.916015625
52,1598010023671134,-0.2484130859375,-0.0225830078125,0.2474365234375,0.93621826171875,2.875,-4.125,-5.5,-0.08154296875,-0.484375,0.91357421875
53,1598010023687109,-0.24798583984375,-0.02313232421875,0.24688720703125,0.93646240234375,0.6875,-3.0625,-4.4375,-0.08837890625,-0.478515625,0.90966796875
54,1598010023710232,-0.2479248046875,-0.0238037109375,0.2464599609375,0.93658447265625,-1.375,-3.6875,-3.5625,-0.08984375,-0.4755859375,0.9013671875
55,1598010023730959,-0.248291015625,-0.02459716796875,0.24615478515625,0.9365234375,-3.125,-3.4375,-3.0,-0.08154296875,-0.49951171875,0.91357421875
56,1598010023747731,-0.24871826171875,-0.02484130859375,0.245849609375,0.93646240234375,-2.125,-0.8125,-1.8125,-0.087890625,-0.517578125,0.9248046875
57,1598010023769954,-0.24853515625,-0.02447509765625,0.24566650390625,0.93658447265625,2.25,0.3125,-1.5,-0.10693359375,-0.5107421875,0.91748046875
58,1598010023790963,-0.248046875,-0.02410888671875,0.24542236328125,0.93682861328125,2.75,0.3125,-2.0,-0.10400390625,-0.4833984375,0.91259765625
59,1598010023807969,-0.2479248046875,-0.0238037109375,0.2452392578125,0.9368896484375,0.3125,0.5,-1.625,-0.09814453125,-0.48193359375,0.91162109375
60,1598010023829955,-0.24810791015625,-0.02374267578125,0.2452392578125,0.93682861328125,-1.125,-0.375,-0.5,-0.09765625,-0.49267578125,0.90380859375
61,1598010023850955,-0.24810791015625,-0.023681640625,0.2452392578125,0.93682861328125,-0.25,-0.3125,-0.875,-0.08837890625,-0.49560546875,0.8955078125
62,1598010023867959,-0.24798583984375,-0.02374267578125,0.2449951171875,0.93695068359375,0.6875,0.0625,-1.625,-0.07763671875,-0.48193359375,0.890625
63,1598010023890080,-0.24798583984375,-0.02374267578125,0.2449951171875,0.93695068359375,-0.1875,0.125,-0.8125,-0.080078125,-0.478515625,0.890625
64,1598010023911022,-0.2481689453125,-0.02386474609375,0.24493408203125,0.9368896484375,-1.4375,-0.6875,-0.4375,-0.0810546875,-0.4814453125,0.88525390625
65,1598010023926965,-0.2484130859375,-0.0242919921875,0.24493408203125,0.93682861328125,-1.625,-1.625,-0.5,-0.07666015625,-0.4921875,0.89013671875
66,1598010023949957,-0.2484130859375,-0.02459716796875,0.24493408203125,0.93682861328125,-0.25,-1.875,-0.25,-0.07666015625,-0.48828125,0.88671875
67,1598010023970952,-0.24835205078125,-0.02496337890625,0.24505615234375,0.936767578125,-0.1875,-2.3125,0.1875,-0.0771484375,-0.48828125,0.88818359375
68,1598010023987955,-0.24847412109375,-0.0255126953125,0.2451171875,0.93670654296875,-1.5625,-2.5,-0.4375,-0.0732421875,-0.48388671875,0.88623046875
69,1598010024009955,-0.248779296875,-0.0260009765625,0.2451171875,0.9366455078125,-2.625,-2.4375,-0.75,-0.0751953125,-0.48095703125,0.88818359375
70,1598010024032794,-0.2490234375,-0.02655029296875,0.2449951171875,0.93658447265625,-2.125,-3.25,-1.6875,-0.0869140625,-0.48681640625,0.88427734375
71,1598010024047955,-0.2493896484375,-0.0274658203125,0.24468994140625,0.9365234375,-3.75,-4.3125,-3.125,-0.07666015625,-0.486328125,0.8857421875
72,1598010024069958,-0.24981689453125,-0.028564453125,0.24432373046875,0.9365234375,-3.4375,-4.0625,-3.0,-0.05859375,-0.5029296875,0.89501953125
73,1598010024092673,-0.24993896484375,-0.02923583984375,0.24395751953125,0.9365234375,-0.5625,-2.8125,-2.75,-0.06689453125,-0.51171875,0.89599609375
74,1598010024107374,-0.24951171875,-0.02947998046875,0.24359130859375,0.936767578125,2.125,-1.6875,-2.8125,-0.07470703125,-0.49365234375,0.89990234375
75,1598010024130440,-0.24908447265625,-0.02960205078125,0.24310302734375,0.93695068359375,0.8125,-1.125,-3.8125,-0.07763671875,-0.47509765625,0.90087890625
76,1598010024152921,-0.24920654296875,-0.02996826171875,0.2425537109375,0.93707275390625,-2.5625,-1.5,-3.75,-0.07421875,-0.4765625,0.90576171875
77,1598010024166793,-0.2498779296875,-0.03070068359375,0.2420654296875,0.93701171875,-4.9375,-2.0625,-3.3125,-0.0615234375,-0.49755859375,0.904296875
78,1598010024190297,-0.25042724609375,-0.03131103515625,0.24163818359375,0.93695068359375,-2.9375,-1.75,-3.0,-0.06396484375,-0.51806640625,0.90673828125
79,1598010024212108,-0.25054931640625,-0.0313720703125,0.24127197265625,0.93701171875,-0.3125,0.0625,-2.4375,-0.06982421875,-0.5126953125,0.904296875
80,1598010024227128,-0.2509765625,-0.03131103515625,0.240966796875,0.93695068359375,-1.375,0.25,-1.75,-0.08203125,-0.51416015625,0.90283203125
81,1598010024250311,-0.25048828125,-0.031005859375,0.2406005859375,0.93719482421875,2.4375,1.625,-2.0,-0.06103515625,-0.48583984375,0.8994140625
82,1598010024272575,-0.25,-0.03076171875,0.24029541015625,0.93743896484375,1.5,0.1875,-2.5,-0.08056640625,-0.46875,0.8896484375
83,1598010024286575,-0.25067138671875,-0.031005859375,0.239990234375,0.93731689453125,-5.125,-1.3125,-2.25,-0.0810546875,-0.47900390625,0.8896484375
84,1598010024310306,-0.25146484375,-0.03155517578125,0.23944091796875,0.937255859375,-4.4375,-1.0625,-3.6875,-0.0634765625,-0.5078125,0.88330078125
85,1598010024332145,-0.251953125,-0.03179931640625,0.23876953125,0.937255859375,-1.5,0.4375,-3.5,-0.05908203125,-0.52197265625,0.88623046875
86,1598010024347229,-0.25189208984375,-0.03167724609375,0.23822021484375,0.93743896484375,1.0,0.875,-3.3125,-0.07177734375,-0.5048828125,0.892578125
87,1598010024370275,-0.251708984375,-0.0316162109375,0.23779296875,0.93756103515625,1.25,0.25,-2.8125,-0.07080078125,-0.4951171875,0.8798828125
88,1598010024392155,-0.25213623046875,-0.03192138671875,0.23724365234375,0.9376220703125,-2.875,-0.8125,-3.875,-0.0693359375,-0.48681640625,0.869140625
89,1598010024407363,-0.25311279296875,-0.03192138671875,0.23663330078125,0.93743896484375,-4.9375,1.0,-3.3125,-0.07958984375,-0.509765625,0.8818359375
90,1598010024431419,-0.25360107421875,-0.03204345703125,0.2359619140625,0.9375,-1.9375,-0.5625,-4.6875,-0.08740234375,-0.51513671875,0.89013671875
91,1598010024452774,-0.2529296875,-0.03228759765625,0.2349853515625,0.93792724609375,4.75,-1.5625,-6.875,-0.07470703125,-0.51904296875,0.89404296875
92,1598010024467146,-0.2518310546875,-0.0325927734375,0.23443603515625,0.9383544921875,6.9375,-1.625,-3.8125,-0.0498046875,-0.5234375,0.8984375
93,1598010024490147,-0.24957275390625,-0.03253173828125,0.23309326171875,0.93927001953125,11.875,-0.875,-9.0,-0.05810546875,-0.47607421875,0.8994140625
94,1598010024512239,-0.2479248046875,-0.0333251953125,0.23162841796875,0.9400634765625,6.25,-3.8125,-10.0,-0.0439453125,-0.4501953125,0.8837890625
95,1598010024533144,-0.24847412109375,-0.035888671875,0.23052978515625,0.94012451171875,-4.4375,-9.1875,-8.1875,-0.0087890625,-0.498046875,0.84521484375
96,1598010024550148,-0.247314453125,-0.03826904296875,0.2303466796875,0.94036865234375,4.125,-12.375,-4.25,-0.01611328125,-0.50048828125,0.87548828125
97,1598010024572278,-0.245361328125,-0.04010009765625,0.231201171875,0.9405517578125,10.375,-14.875,0.75,-0.05712890625,-0.51953125,0.89599609375
98,1598010024593779,-0.24420166015625,-0.0413818359375,0.23175048828125,0.940673828125,6.125,-12.5625,-1.0625,-0.09228515625,-0.49462890625,0.86865234375
