index,timestamp,orientation_x,orientation_y,orientation_z,orientation_w,gyroscope_x,gyroscope_y,gyroscope_z,acceleration_x,acceleration_y,acceleration_z
0,1596962571653993,0.0755615234375,0.02874755859375,0.10528564453125,0.9910888671875,-2.3125,-0.4375,-2.3125,-0.06982421875,0.1748046875,0.98095703125
1,1596962571677003,0.0743408203125,0.02862548828125,0.104736328125,0.99127197265625,-6.6875,-0.9375,-2.9375,-0.05517578125,0.1494140625,0.97900390625
2,1596962571698992,0.0731201171875,0.0283203125,0.10418701171875,0.99139404296875,-4.9375,-1.25,-3.3125,-0.03857421875,0.1201171875,0.9892578125
3,1596962571713992,0.0733642578125,0.02825927734375,0.1036376953125,0.991455078125,2.1875,-1.0625,-3.25,-0.0439453125,0.14013671875,1.00146484375
4,1596962571737000,0.07373046875,0.02813720703125,0.10321044921875,0.991455078125,1.9375,-1.375,-2.1875,-0.04736328125,0.1552734375,0.99560546875
5,1596962571758993,0.073974609375,0.0279541015625,0.1029052734375,0.99151611328125,-0.1875,-1.0625,-1.875,-0.037109375,0.1708984375,0.990234375
6,1596962571772997,0.07330322265625,0.0277099609375,0.102783203125,0.9915771484375,-3.5,-1.0625,-0.8125,-0.03759765625,0.146484375,0.9833984375
7,1596962571796999,0.07281494140625,0.0274658203125,0.1025390625,0.99163818359375,-0.9375,-0.75,-1.375,-0.0341796875,0.1181640625,0.98828125
8,1596962571819997,0.07318115234375,0.02752685546875,0.1025390625,0.99163818359375,2.5625,-0.4375,0.25,-0.044921875,0.14453125,0.9775390625
9,1596962571834001,0.07379150390625,0.0277099609375,0.1025390625,0.9915771484375,2.875,1.0625,0.0,-0.03369140625,0.1591796875,0.974609375
10,1596962571869993,0.0736083984375,0.02813720703125,0.1025390625,0.9915771484375,-1.9375,2.1875,-0.5625,-0.0478515625,0.16357421875,0.98193359375
11,1596962571878993,0.072998046875,0.028564453125,0.10223388671875,0.99163818359375,-3.5,2.1875,-1.8125,-0.0478515625,0.1572265625,0.9775390625
12,1596962571893991,0.07232666015625,0.02899169921875,0.1019287109375,0.99169921875,-2.375,3.6875,-2.1875,-0.02587890625,0.1279296875,0.9873046875
13,1596962571924997,0.0726318359375,0.02935791015625,0.10198974609375,0.99163818359375,1.75,0.9375,0.3125,-0.06201171875,0.150390625,0.9755859375
14,1596962571938999,0.07257080078125,0.02886962890625,0.10186767578125,0.99169921875,0.1875,-2.6875,-0.4375,-0.0341796875,0.1298828125,0.92431640625
15,1596962571969998,0.07232666015625,0.02874755859375,0.10223388671875,0.99169921875,-2.625,1.0,1.5625,-0.0205078125,0.16064453125,0.962890625
16,1596962571976995,0.072021484375,0.0299072265625,0.1019287109375,0.99169921875,-1.25,7.25,-2.125,-0.03759765625,0.14697265625,0.966796875
17,1596962571998995,0.07135009765625,0.03155517578125,0.101806640625,0.99169921875,-5.0625,12.6875,-2.125,-0.00634765625,0.18408203125,1.02294921875
18,1596962572013995,0.069091796875,0.0338134765625,0.1016845703125,0.9918212890625,-16.5,10.8125,-2.0,-0.09912109375,0.2158203125,0.98828125
19,1596962572036993,0.06646728515625,0.035400390625,0.10107421875,0.99200439453125,-15.25,3.9375,-4.0625,-0.14404296875,0.14697265625,0.90380859375
20,1596962572059999,0.063232421875,0.0340576171875,0.09979248046875,0.99237060546875,-18.4375,-6.875,-7.25,-0.0595703125,0.115234375,0.9541015625
21,1596962572079997,0.064208984375,0.03302001953125,0.09930419921875,0.99237060546875,5.6875,-5.3125,-2.6875,-0.03515625,0.12646484375,0.998046875
22,1596962572096990,0.0657958984375,0.03363037109375,0.09820556640625,0.99237060546875,4.5625,4.875,-6.875,-0.01318359375,0.20849609375,0.9833984375
23,1596962572118994,0.06390380859375,0.03485107421875,0.09735107421875,0.9925537109375,-17.8125,8.5,-6.3125,-0.05078125,0.25244140625,1.0380859375
24,1596962572140106,0.0609130859375,0.0355224609375,0.0972900390625,0.99273681640625,-17.0625,-0.3125,-0.3125,-0.134765625,0.1181640625,0.88916015625
25,1596962572157107,0.0572509765625,0.03411865234375,0.0970458984375,0.99298095703125,-22.75,-7.9375,-1.875,-0.0849609375,0.1396484375,1.0205078125
26,1596962572179110,0.05841064453125,0.03118896484375,0.097412109375,0.99298095703125,10.875,10.75,0.1875,0.341796875,0.0546875,1.158203125
27,1596962572200107,0.05828857421875,0.03582763671875,0.09808349609375,0.9927978515625,-5.75,23.5,2.3125,-0.1083984375,0.23291015625,0.99658203125
28,1596962572217118,0.053955078125,0.03973388671875,0.0980224609375,0.992919921875,-21.25,8.6875,-0.75,-0.296875,0.09130859375,0.97021484375
29,1596962572239113,0.0523681640625,0.0399169921875,0.096923828125,0.99310302734375,-5.4375,8.1875,-7.4375,0.02587890625,0.06591796875,1.0126953125
30,1596962572260110,0.0523681640625,0.04168701171875,0.0960693359375,0.99310302734375,3.9375,9.3125,-4.875,-0.08056640625,0.0751953125,1.015625
31,1596962572277106,0.05438232421875,0.04351806640625,0.09613037109375,0.992919921875,14.75,9.6875,0.3125,-0.07421875,0.08642578125,1.01220703125
32,1596962572299116,0.0556640625,0.0455322265625,0.09625244140625,0.99273681640625,8.4375,8.8125,0.75,-0.10693359375,0.11474609375,0.974609375
33,1596962572320110,0.0565185546875,0.0462646484375,0.096923828125,0.9925537109375,4.75,4.25,3.6875,-0.07470703125,0.12744140625,0.98388671875
34,1596962572337107,0.05767822265625,0.047607421875,0.0965576171875,0.99249267578125,7.5625,6.0625,-1.9375,-0.09423828125,0.1201171875,0.9765625
35,1596962572359115,0.05828857421875,0.04876708984375,0.09613037109375,0.992431640625,4.75,5.875,-2.5625,-0.09130859375,0.11669921875,0.97998046875
36,1596962572380107,0.05877685546875,0.05023193359375,0.09539794921875,0.99237060546875,2.5,8.0625,-4.8125,-0.08056640625,0.14404296875,0.97314453125
37,1596962572397107,0.0595703125,0.052001953125,0.09478759765625,0.9923095703125,5.8125,9.0,-3.625,-0.09814453125,0.1220703125,0.9609375
38,1596962572419112,0.059814453125,0.05328369140625,0.09478759765625,0.99224853515625,3.0,7.3125,-0.375,-0.08984375,0.107421875,0.958984375
39,1596962572442113,0.06048583984375,0.0546875,0.09503173828125,0.9920654296875,5.0,7.375,1.125,-0.0986328125,0.12353515625,0.95361328125
40,1596962572457115,0.06103515625,0.0565185546875,0.0950927734375,0.991943359375,4.5625,7.8125,0.375,-0.13134765625,0.11767578125,0.95068359375
41,1596962572479110,0.0616455078125,0.05767822265625,0.0953369140625,0.9918212890625,5.8125,4.875,1.6875,-0.12255859375,0.107421875,0.97119140625
42,1596962572500112,0.06256103515625,0.0587158203125,0.09539794921875,0.99169921875,6.0625,6.4375,0.25,-0.0888671875,0.126953125,0.9755859375
43,1596962572517110,0.06365966796875,0.06036376953125,0.09564208984375,0.99151611328125,7.4375,7.3125,1.5,-0.126953125,0.12646484375,0.9453125
44,1596962572539116,0.06390380859375,0.06146240234375,0.095703125,0.99139404296875,3.5,2.6875,0.625,-0.15966796875,0.11669921875,0.9599609375
45,1596962572563109,0.0645751953125,0.06201171875,0.09564208984375,0.9913330078125,6.5625,0.9375,0.125,-0.13427734375,0.0986328125,0.95849609375
46,1596962572577119,0.0655517578125,0.06243896484375,0.095947265625,0.9912109375,6.1875,0.8125,2.3125,-0.125,0.12744140625,0.951171875
47,1596962572600107,0.06610107421875,0.06317138671875,0.09619140625,0.9910888671875,5.8125,2.5625,1.8125,-0.13232421875,0.10888671875,0.97265625
48,1596962572622107,0.06622314453125,0.0640869140625,0.096435546875,0.99102783203125,2.625,4.25,1.375,-0.1220703125,0.11767578125,0.95849609375
49,1596962572637115,0.0667724609375,0.06500244140625,0.096923828125,0.99090576171875,5.3125,2.9375,3.25,-0.14453125,0.11279296875,0.92626953125
50,1596962572659113,0.0667724609375,0.06585693359375,0.09710693359375,0.99078369140625,1.5,3.0625,1.0,-0.14208984375,0.125,0.96728515625
51,1596962572682109,0.0672607421875,0.0662841796875,0.09759521484375,0.99072265625,4.9375,3.0625,3.125,-0.1103515625,0.1171875,0.98193359375
52,1596962572697107,0.0670166015625,0.067138671875,0.09832763671875,0.9906005859375,-0.75,3.8125,4.0625,-0.134765625,0.13232421875,0.95703125
53,1596962572719112,0.0662841796875,0.06781005859375,0.09912109375,0.990478515625,-2.625,4.0,4.25,-0.12841796875,0.1240234375,0.96875
54,1596962572742114,0.06591796875,0.06866455078125,0.0999755859375,0.9903564453125,0.625,4.125,4.9375,-0.14453125,0.107421875,0.98583984375
55,1596962572756113,0.06689453125,0.06951904296875,0.100830078125,0.99017333984375,7.4375,5.3125,5.125,-0.11328125,0.1240234375,0.99072265625
56,1596962572779110,0.068115234375,0.07086181640625,0.10162353515625,0.98992919921875,6.4375,7.125,4.4375,-0.126953125,0.15771484375,0.96337890625
57,1596962572802109,0.06817626953125,0.0716552734375,0.10247802734375,0.98974609375,-1.25,3.1875,4.5,-0.1494140625,0.171875,0.9609375
58,1596962572816113,0.06732177734375,0.07171630859375,0.10321044921875,0.98974609375,-2.5,0.875,4.1875,-0.13427734375,0.11376953125,0.97998046875
59,1596962572839111,0.06805419921875,0.072265625,0.10406494140625,0.98956298828125,5.0625,3.125,5.0,-0.126953125,0.1328125,0.97998046875
60,1596962572862112,0.0692138671875,0.07330322265625,0.1046142578125,0.9893798828125,7.125,3.8125,3.6875,-0.15380859375,0.1533203125,0.97216796875
61,1596962572876104,0.07000732421875,0.07366943359375,0.10528564453125,0.98919677734375,2.8125,0.9375,4.0625,-0.1474609375,0.17041015625,0.9619140625
62,1596962572899105,0.06988525390625,0.0736083984375,0.1060791015625,0.9891357421875,0.1875,-0.1875,4.625,-0.13232421875,0.13623046875,0.97314453125
63,1596962572922105,0.0703125,0.073974609375,0.10662841796875,0.989013671875,2.5625,3.125,3.0625,-0.11279296875,0.154296875,0.9765625
64,1596962572936109,0.07073974609375,0.07464599609375,0.107177734375,0.9888916015625,2.5625,4.4375,2.875,-0.12353515625,0.15478515625,0.97216796875
65,1596962572959110,0.07135009765625,0.0751953125,0.1075439453125,0.98876953125,3.125,1.0625,2.25,-0.15869140625,0.1591796875,0.953125
66,1596962572982112,0.07177734375,0.07513427734375,0.10784912109375,0.98870849609375,2.6875,-1.0,2.375,-0.14013671875,0.1513671875,0.96435546875
67,1596962572996116,0.07177734375,0.074951171875,0.10833740234375,0.9886474609375,-0.5625,0.0625,2.625,-0.11767578125,0.16259765625,0.97900390625
68,1596962573019107,0.07220458984375,0.0750732421875,0.10894775390625,0.988525390625,1.3125,0.5625,3.5625,-0.1376953125,0.169921875,0.97900390625
69,1596962573042108,0.07208251953125,0.07525634765625,0.10919189453125,0.988525390625,-1.9375,0.0625,1.1875,-0.14453125,0.17236328125,0.958984375
70,1596962573056113,0.0712890625,0.0751953125,0.109619140625,0.988525390625,-3.5625,0.1875,2.0625,-0.130859375,0.1357421875,0.9501953125
71,1596962573079111,0.07098388671875,0.07525634765625,0.10980224609375,0.988525390625,-0.6875,0.875,1.0625,-0.12890625,0.140625,0.97119140625
72,1596962573102110,0.07098388671875,0.07525634765625,0.10980224609375,0.988525390625,0.9375,0.4375,-0.3125,-0.1435546875,0.1611328125,0.95556640625
73,1596962573123206,0.07196044921875,0.07550048828125,0.1097412109375,0.9884033203125,3.5625,-1.0625,-0.125,-0.15625,0.18310546875,0.94677734375
74,1596962573139212,0.0721435546875,0.075439453125,0.109375,0.98846435546875,1.6875,-0.5625,-1.75,-0.1279296875,0.1455078125,0.9677734375
75,1596962573162215,0.0721435546875,0.075439453125,0.109375,0.98846435546875,0.4375,0.4375,0.0,-0.12841796875,0.17626953125,0.97607421875
76,1596962573183215,0.0726318359375,0.07574462890625,0.1094970703125,0.9884033203125,7.0625,1.0,1.375,-0.14892578125,0.10205078125,1.0205078125
77,1596962573199204,0.07464599609375,0.0770263671875,0.1092529296875,0.9881591796875,18.5,6.9375,-0.1875,-0.1181640625,0.07177734375,0.9443359375
78,1596962573222208,0.07958984375,0.0775146484375,0.107666015625,0.9879150390625,31.4375,2.75,-7.125,-0.07763671875,0.13232421875,0.93896484375
79,1596962573243208,0.08441162109375,0.0775146484375,0.10748291015625,0.987548828125,25.0,-0.3125,0.375,-0.09912109375,0.2236328125,0.98828125
80,1596962573259203,0.08489990234375,0.07696533203125,0.10791015625,0.98748779296875,-3.5625,-5.9375,2.4375,-0.16650390625,0.25830078125,0.93212890625
81,1596962573282210,0.08758544921875,0.07696533203125,0.106689453125,0.98736572265625,7.4375,-3.5625,-6.625,-0.15966796875,0.3193359375,0.998046875
82,1596962573303204,0.0859375,0.076416015625,0.10577392578125,0.9876708984375,-19.1875,0.9375,-7.8125,-0.0771484375,0.32470703125,0.9677734375
83,1596962573319203,0.0819091796875,0.07659912109375,0.105224609375,0.988037109375,-22.25,-0.75,-4.5,-0.19189453125,0.17724609375,0.99658203125
84,1596962573341206,0.08551025390625,0.077392578125,0.103515625,0.98785400390625,17.375,-3.1875,-8.0,-0.2021484375,0.23583984375,0.92919921875
85,1596962573363206,0.08282470703125,0.0772705078125,0.10382080078125,0.98809814453125,-17.75,-6.0,1.375,-0.22802734375,0.20166015625,0.919921875
86,1596962573379204,0.0810546875,0.0740966796875,0.10406494140625,0.98846435546875,-4.25,-8.8125,1.625,-0.0126953125,0.064453125,0.99951171875
87,1596962573403209,0.081787109375,0.07415771484375,0.103515625,0.98846435546875,6.0625,2.9375,-3.375,-0.08544921875,0.15576171875,0.9853515625
88,1596962573424208,0.08404541015625,0.0753173828125,0.1033935546875,0.9881591796875,8.4375,0.5625,0.0625,-0.1923828125,0.24560546875,0.9189453125
89,1596962573440203,0.083984375,0.07489013671875,0.10302734375,0.98828125,-3.0,-10.0,-1.0625,-0.22802734375,0.20068359375,0.89794921875
90,1596962573462209,0.08056640625,0.07208251953125,0.10211181640625,0.98883056640625,-21.9375,-16.9375,-5.4375,-0.14892578125,0.17626953125,0.88330078125
91,1596962573483214,0.07763671875,0.06787109375,0.1011962890625,0.98944091796875,-12.625,-23.6875,-3.6875,-0.12451171875,0.06884765625,0.95263671875
92,1596962573498212,0.08001708984375,0.06463623046875,0.099609375,0.9896240234375,15.5625,-16.1875,-7.0,-0.05419921875,0.12646484375,1.0078125
93,1596962573522207,0.08447265625,0.06414794921875,0.09735107421875,0.98956298828125,22.4375,-4.9375,-11.75,-0.10009765625,0.240234375,1.037109375
94,1596962573544208,0.0860595703125,0.063720703125,0.09637451171875,0.989501953125,5.0625,-5.25,-4.8125,-0.12939453125,0.2431640625,0.994140625
95,1596962573558206,0.08319091796875,0.06298828125,0.09625244140625,0.98980712890625,-18.1875,-4.75,-1.375,-0.1396484375,0.19140625,0.9541015625
96,1596962573582208,0.07928466796875,0.0614013671875,0.09716796875,0.99017333984375,-22.0,-8.75,4.6875,-0.1328125,0.1435546875,0.962890625
97,1596962573604204,0.0767822265625,0.0596923828125,0.09686279296875,0.990478515625,-9.8125,-8.0,-1.625,-0.09619140625,0.087890625,0.986328125
98,1596962573618217,0.07794189453125,0.058837890625,0.095458984375,0.9906005859375,10.8125,-4.0625,-6.9375,-0.078125,0.1064453125,1.0185546875
99,1596962573642219,0.0809326171875,0.058349609375,0.0948486328125,0.99041748046875,13.5625,-5.4375,-2.375,-0.10888671875,0.21728515625,0.9765625
100,1596962573664212,0.0814208984375,0.05731201171875,0.09552001953125,0.99041748046875,-1.125,-8.3125,4.375,-0.12841796875,0.2080078125,0.912109375
