index,timestamp,orientation_x,orientation_y,orientation_z,orientation_w,gyroscope_x,gyroscope_y,gyroscope_z,acceleration_x,acceleration_y,acceleration_z
0,1598293335172410,0.03302001953125,0.127197265625,0.78631591796875,0.60357666015625,3.5625,5.0625,-1.0,-0.08837890625,0.232421875,0.93701171875
1,1598293335195441,0.03271484375,0.1279296875,0.786376953125,0.6033935546875,2.375,3.625,0.8125,-0.1064453125,0.23193359375,0.939453125
2,1598293335216952,0.03240966796875,0.12835693359375,0.78668212890625,0.6029052734375,0.0625,2.6875,2.6875,-0.111328125,0.24365234375,0.9423828125
3,1598293335232654,0.03179931640625,0.12847900390625,0.78692626953125,0.6026611328125,-1.125,2.25,1.9375,-0.1201171875,0.22802734375,0.94970703125
4,1598293335255699,0.03118896484375,0.12847900390625,0.78692626953125,0.6026611328125,-1.4375,2.3125,-0.25,-0.11083984375,0.22607421875,0.94384765625
5,1598293335276723,0.0308837890625,0.12908935546875,0.78680419921875,0.60272216796875,2.375,3.0625,-0.875,-0.109375,0.2236328125,0.95068359375
6,1598293335292720,0.0306396484375,0.1297607421875,0.78662109375,0.602783203125,2.375,3.0625,-1.375,-0.11279296875,0.24072265625,0.953125
7,1598293335315731,0.03009033203125,0.13006591796875,0.7864990234375,0.6029052734375,-1.1875,2.6875,-1.125,-0.1171875,0.25,0.9541015625
8,1598293335338037,0.029541015625,0.12969970703125,0.7867431640625,0.6026611328125,-3.5625,0.625,1.75,-0.1201171875,0.23046875,0.94970703125
9,1598293335352901,0.0296630859375,0.12933349609375,0.7869873046875,0.60247802734375,0.75,-3.0625,2.3125,-0.12890625,0.208984375,0.9638671875
10,1598293335375441,0.0301513671875,0.130615234375,0.78680419921875,0.6024169921875,8.1875,2.1875,-0.3125,-0.11572265625,0.2412109375,1.00439453125
11,1598293335397754,0.02972412109375,0.1341552734375,0.78594970703125,0.60272216796875,13.1875,13.75,-5.375,-0.11669921875,0.27978515625,0.98876953125
12,1598293335412756,0.02691650390625,0.1334228515625,0.7862548828125,0.60260009765625,-12.4375,5.1875,1.0,-0.19140625,0.22265625,0.923828125
13,1598293335435798,0.02728271484375,0.132080078125,0.78680419921875,0.60223388671875,-2.375,-11.5,5.5,-0.193359375,0.189453125,0.939453125
14,1598293335457913,0.03070068359375,0.133544921875,0.7860107421875,0.60272216796875,21.9375,-9.4375,-2.5,-0.0927734375,0.20361328125,0.95458984375
15,1598293335472730,0.03253173828125,0.1365966796875,0.7845458984375,0.6038818359375,17.625,2.3125,-10.25,-0.0947265625,0.29736328125,0.95361328125
16,1598293335495685,0.03240966796875,0.137451171875,0.78350830078125,0.60504150390625,-0.25,2.25,-9.625,-0.115234375,0.30712890625,0.9228515625
17,1598293335517695,0.031005859375,0.13525390625,0.78350830078125,0.60565185546875,-15.6875,-1.0625,-3.5,-0.1025390625,0.2529296875,0.9375
18,1598293335538682,0.02996826171875,0.13385009765625,0.78350830078125,0.60595703125,-9.0625,0.125,-2.125,-0.10009765625,0.2275390625,0.94091796875
19,1598293335555756,0.0294189453125,0.13397216796875,0.782958984375,0.606689453125,-2.8125,2.8125,-5.8125,-0.10986328125,0.27001953125,0.9560546875
20,1598293335578094,0.029052734375,0.13446044921875,0.782470703125,0.607177734375,0.125,2.4375,-4.5625,-0.1220703125,0.25927734375,0.9580078125
21,1598293335599916,0.02777099609375,0.1334228515625,0.7822265625,0.60784912109375,-9.6875,1.9375,-5.0625,-0.11181640625,0.2490234375,0.947265625
22,1598293335615615,0.02679443359375,0.13189697265625,0.7823486328125,0.6080322265625,-9.1875,-1.4375,-0.625,-0.12060546875,0.20849609375,0.9208984375
23,1598293335637674,0.02655029296875,0.13067626953125,0.78271484375,0.60784912109375,-3.0625,-3.0625,2.6875,-0.11279296875,0.17822265625,0.93505859375
24,1598293335652313,0.02764892578125,0.13153076171875,0.78277587890625,0.6075439453125,8.6875,-2.875,2.4375,-0.13037109375,0.21826171875,0.94384765625
25,1598293335675394,0.02947998046875,0.133544921875,0.782470703125,0.60736083984375,13.125,-1.5,0.8125,-0.12353515625,0.27734375,0.95068359375
26,1598293335697849,0.029541015625,0.13360595703125,0.782470703125,0.60736083984375,0.375,-0.3125,-0.625,-0.119140625,0.27294921875,0.93896484375
27,1598293335711927,0.0283203125,0.1319580078125,0.78265380859375,0.6075439453125,-11.4375,-2.1875,-0.5,-0.134765625,0.22900390625,0.93310546875
28,1598293335735700,0.02789306640625,0.13031005859375,0.782958984375,0.6075439453125,-6.5,-4.6875,1.75,-0.1298828125,0.19140625,0.93994140625
29,1598293335757684,0.02911376953125,0.13104248046875,0.78289794921875,0.607421875,8.3125,-3.75,1.4375,-0.12353515625,0.22412109375,0.94921875
30,1598293335779299,0.030517578125,0.1329345703125,0.78228759765625,0.607666015625,11.0625,-0.25,-2.9375,-0.11572265625,0.28125,0.943359375
31,1598293335795355,0.0301513671875,0.13287353515625,0.781982421875,0.608154296875,-3.1875,0.5,-3.8125,-0.11767578125,0.27099609375,0.9658203125
32,1598293335818233,0.0284423828125,0.130859375,0.78204345703125,0.60858154296875,-13.4375,-0.875,-1.8125,-0.13330078125,0.21142578125,0.9443359375
33,1598293335846012,0.02752685546875,0.1292724609375,0.7822265625,0.60870361328125,-8.0625,-2.75,0.0625,-0.130859375,0.19140625,0.9462890625
34,1598293335855012,0.02813720703125,0.12939453125,0.7822265625,0.60870361328125,4.875,-3.0,0.5625,-0.12060546875,0.20361328125,0.9560546875
35,1598293335885224,0.0294189453125,0.13079833984375,0.78192138671875,0.6087646484375,9.6875,-1.625,-0.4375,-0.12158203125,0.25439453125,0.9521484375
36,1598293335899219,0.0299072265625,0.13116455078125,0.78179931640625,0.6087646484375,1.75,-1.5625,-0.3125,-0.1220703125,0.26220703125,0.95654296875
37,1598293335915220,0.02947998046875,0.13018798828125,0.78204345703125,0.60870361328125,-5.5,-1.8125,1.0,-0.11572265625,0.23095703125,0.9482421875
38,1598293335937944,0.02923583984375,0.12957763671875,0.7823486328125,0.60845947265625,-2.0625,-1.5,2.625,-0.12158203125,0.20751953125,0.94970703125
39,1598293335959599,0.02984619140625,0.1302490234375,0.78240966796875,0.608154296875,6.25,-1.0,2.25,-0.12353515625,0.21826171875,0.95458984375
40,1598293335975601,0.03033447265625,0.131103515625,0.7823486328125,0.60809326171875,5.1875,-0.375,0.375,-0.1259765625,0.25048828125,0.95751953125
41,1598293336005731,0.03045654296875,0.1314697265625,0.78228759765625,0.6080322265625,1.25,-0.0625,0.125,-0.12646484375,0.251953125,0.9619140625
42,1598293336018738,0.0301513671875,0.131103515625,0.7823486328125,0.6080322265625,-2.0625,-1.25,0.5,-0.12939453125,0.22802734375,0.95361328125
43,1598293336035668,0.0303955078125,0.130859375,0.78240966796875,0.60797119140625,0.5,-2.375,0.875,-0.1171875,0.2265625,0.9453125
44,1598293336058133,0.031005859375,0.131103515625,0.782470703125,0.60791015625,3.4375,-2.125,1.0,-0.11474609375,0.23095703125,0.94482421875
45,1598293336079293,0.03155517578125,0.1318359375,0.78228759765625,0.60791015625,4.875,-0.8125,-0.0625,-0.1220703125,0.24853515625,0.95947265625
46,1598293336096291,0.03167724609375,0.13226318359375,0.7821044921875,0.6080322265625,1.4375,0.0,-1.0625,-0.12109375,0.25830078125,0.94873046875
47,1598293336125309,0.0313720703125,0.13214111328125,0.78204345703125,0.608154296875,-1.8125,0.0625,-1.125,-0.1201171875,0.24609375,0.9599609375
48,1598293336140019,0.0308837890625,0.131591796875,0.78204345703125,0.6082763671875,-3.6875,-0.5,-0.625,-0.12109375,0.23388671875,0.955078125
49,1598293336163119,0.0308837890625,0.13153076171875,0.78204345703125,0.6082763671875,-0.625,-0.875,0.0,-0.115234375,0.22900390625,0.947265625
50,1598293336177903,0.03118896484375,0.1314697265625,0.781982421875,0.6083984375,0.375,-1.875,-0.625,-0.10888671875,0.24072265625,0.9296875
51,1598293336199462,0.031494140625,0.131591796875,0.7818603515625,0.6085205078125,1.8125,-0.8125,-0.8125,-0.10400390625,0.23974609375,0.951171875
52,1598293336215805,0.03155517578125,0.1317138671875,0.78179931640625,0.60858154296875,1.375,-0.5,-0.1875,-0.1181640625,0.23046875,0.95263671875
53,1598293336245822,0.03155517578125,0.13201904296875,0.78173828125,0.60858154296875,1.125,0.3125,-0.25,-0.123046875,0.244140625,0.95166015625
54,1598293336260752,0.03155517578125,0.13201904296875,0.78173828125,0.60858154296875,-0.1875,-0.5,0.0625,-0.12109375,0.24853515625,0.95654296875
55,1598293336282826,0.03155517578125,0.13189697265625,0.78173828125,0.608642578125,-1.0625,-0.9375,0.0625,-0.11572265625,0.2451171875,0.9423828125
56,1598293336297897,0.03155517578125,0.13177490234375,0.78167724609375,0.60870361328125,0.1875,-1.125,-0.375,-0.11572265625,0.2314453125,0.943359375
57,1598293336320719,0.0316162109375,0.1318359375,0.7816162109375,0.6087646484375,1.125,-0.875,-0.125,-0.119140625,0.22802734375,0.94775390625
58,1598293336335712,0.03192138671875,0.1322021484375,0.78143310546875,0.60894775390625,2.5,-1.1875,-1.125,-0.12255859375,0.2421875,0.94140625
59,1598293336357777,0.03216552734375,0.13238525390625,0.78125,0.609130859375,0.625,-0.8125,-1.4375,-0.1123046875,0.2578125,0.94140625
60,1598293336379938,0.03204345703125,0.13238525390625,0.78118896484375,0.60919189453125,-1.5625,0.75,-1.0,-0.107421875,0.26025390625,0.95556640625
61,1598293336402718,0.03131103515625,0.1324462890625,0.7811279296875,0.6092529296875,-2.8125,4.6875,-1.375,-0.09716796875,0.2578125,0.97412109375
62,1598293336418043,0.0296630859375,0.1331787109375,0.78082275390625,0.609619140625,-4.0625,9.125,-4.25,-0.12060546875,0.26171875,0.93603515625
63,1598293336442231,0.02752685546875,0.1322021484375,0.7806396484375,0.61016845703125,-11.875,2.6875,-3.6875,-0.150390625,0.2177734375,0.876953125
64,1598293336454340,0.02593994140625,0.1287841796875,0.78155517578125,0.60980224609375,-16.625,-5.25,4.75,-0.11865234375,0.14697265625,0.9033203125
65,1598293336477781,0.02630615234375,0.12713623046875,0.78253173828125,0.60888671875,-0.4375,-5.75,8.625,-0.1025390625,0.13720703125,0.955078125
66,1598293336499967,0.02801513671875,0.12823486328125,0.7830810546875,0.60784912109375,14.0625,-3.6875,8.375,-0.12255859375,0.17724609375,0.95166015625
67,1598293336523086,0.0303955078125,0.13079833984375,0.783203125,0.6070556640625,18.5,-2.1875,5.3125,-0.12353515625,0.25732421875,0.9482421875
68,1598293336537515,0.031494140625,0.13299560546875,0.78289794921875,0.60687255859375,8.875,1.5,-0.0625,-0.125,0.31494140625,0.9345703125
69,1598293336561389,0.03094482421875,0.1318359375,0.782958984375,0.60711669921875,-10.0,-3.5625,-0.9375,-0.1376953125,0.27685546875,0.93701171875
70,1598293336574393,0.03033447265625,0.1292724609375,0.7835693359375,0.60687255859375,-13.125,-6.8125,3.1875,-0.1220703125,0.2236328125,0.96142578125
71,1598293336598391,0.0306396484375,0.12750244140625,0.78399658203125,0.60662841796875,-4.875,-8.0,3.6875,-0.11669921875,0.203125,0.96337890625
72,1598293336620890,0.03131103515625,0.1270751953125,0.78411865234375,0.6065673828125,2.375,-4.625,1.6875,-0.10888671875,0.20703125,0.9677734375
73,1598293336634934,0.03265380859375,0.128662109375,0.78369140625,0.606689453125,11.25,-1.25,-1.4375,-0.1171875,0.25634765625,0.9794921875
74,1598293336657872,0.03363037109375,0.130126953125,0.78302001953125,0.60723876953125,7.0625,-2.3125,-4.125,-0.13720703125,0.28955078125,0.9580078125
75,1598293336680871,0.03375244140625,0.13006591796875,0.7823486328125,0.60809326171875,-1.6875,-3.125,-5.75,-0.1328125,0.2734375,0.955078125
76,1598293336694952,0.03326416015625,0.12847900390625,0.7821044921875,0.60882568359375,-8.25,-4.4375,-4.25,-0.10595703125,0.23193359375,0.95751953125
77,1598293336718645,0.03289794921875,0.127197265625,0.78173828125,0.60955810546875,-4.8125,-2.9375,-4.5,-0.10302734375,0.21142578125,0.97998046875
78,1598293336740674,0.033203125,0.12713623046875,0.78118896484375,0.6102294921875,1.5625,-3.375,-4.375,-0.11865234375,0.2275390625,0.96484375
79,1598293336761316,0.03375244140625,0.12738037109375,0.7806396484375,0.61083984375,2.6875,-3.0625,-4.375,-0.1171875,0.2490234375,0.9609375
80,1598293336777887,0.0338134765625,0.12762451171875,0.780029296875,0.611572265625,1.3125,-0.75,-5.25,-0.10986328125,0.2412109375,0.95654296875
81,1598293336800671,0.03350830078125,0.12774658203125,0.77935791015625,0.6124267578125,-0.0625,-0.375,-6.25,-0.12353515625,0.236328125,0.9453125
82,1598293336821768,0.0335693359375,0.1270751953125,0.77899169921875,0.61297607421875,-1.5,-3.75,-3.0,-0.111328125,0.21484375,0.94091796875
83,1598293336838606,0.03436279296875,0.127197265625,0.77850341796875,0.61358642578125,4.125,-3.0,-4.0,-0.09716796875,0.232421875,0.97216796875
84,1598293336860459,0.0345458984375,0.12823486328125,0.77777099609375,0.6142578125,6.375,1.8125,-5.6875,-0.1064453125,0.234375,0.970703125
85,1598293336881701,0.034423828125,0.12896728515625,0.77716064453125,0.61492919921875,1.8125,1.4375,-5.125,-0.1220703125,0.2587890625,0.97021484375
86,1598293336897700,0.0338134765625,0.129150390625,0.776611328125,0.6156005859375,-1.75,0.25,-4.875,-0.140625,0.2509765625,0.9443359375
87,1598293336920971,0.0328369140625,0.12823486328125,0.77630615234375,0.61627197265625,-6.625,-1.25,-4.25,-0.13134765625,0.224609375,0.95751953125
88,1598293336941152,0.0323486328125,0.1278076171875,0.77581787109375,0.616943359375,-2.75,-0.125,-4.9375,-0.11279296875,0.22314453125,0.96044921875
89,1598293336958314,0.03192138671875,0.1278076171875,0.7752685546875,0.61767578125,-0.375,0.4375,-5.3125,-0.11669921875,0.22802734375,0.97265625
90,1598293336980225,0.0313720703125,0.1275634765625,0.77496337890625,0.61810302734375,-1.5625,0.8125,-3.0,-0.11767578125,0.21337890625,0.9580078125
91,1598293337001441,0.0311279296875,0.1273193359375,0.77496337890625,0.6181640625,-0.5625,-1.25,0.0625,-0.13037109375,0.21484375,0.96484375
92,1598293337017566,0.03155517578125,0.127685546875,0.7747802734375,0.6182861328125,2.8125,-2.8125,-0.3125,-0.1396484375,0.23828125,0.9443359375
93,1598293337040622,0.03167724609375,0.12738037109375,0.77471923828125,0.618408203125,-1.0,-3.0625,-0.375,-0.1259765625,0.232421875,0.94482421875
94,1598293337061906,0.03143310546875,0.126953125,0.774658203125,0.61859130859375,-1.875,-1.0625,-0.9375,-0.11083984375,0.21435546875,0.94921875
95,1598293337068619,0.0313720703125,0.12689208984375,0.774658203125,0.61859130859375,0.5625,-0.75,-0.6875,-0.11474609375,0.21484375,0.953125
96,1598293337083623,0.0316162109375,0.12713623046875,0.774658203125,0.61859130859375,2.625,-1.0,0.5,-0.11767578125,0.22314453125,0.9638671875
97,1598293337113915,0.03173828125,0.1273193359375,0.77471923828125,0.61846923828125,1.625,-0.875,1.0,-0.12548828125,0.22998046875,0.953125
98,1598293337127913,0.031982421875,0.12725830078125,0.7747802734375,0.61834716796875,0.6875,-2.5625,1.25,-0.12744140625,0.2294921875,0.95458984375
99,1598293337143627,0.03216552734375,0.12725830078125,0.7747802734375,0.618408203125,0.9375,-2.0625,0.0,-0.1220703125,0.23388671875,0.96728515625
100,1598293337165769,0.03228759765625,0.12713623046875,0.774658203125,0.6185302734375,-0.375,-2.0625,-0.5,-0.1220703125,0.236328125,0.943359375
