index,timestamp,orientation_x,orientation_y,orientation_z,orientation_w,gyroscope_x,gyroscope_y,gyroscope_z,acceleration_x,acceleration_y,acceleration_z
0,1596962592714522,0.10400390625,0.044677734375,0.07861328125,0.99041748046875,1.5,0.0625,-0.75,-0.05908203125,0.21044921875,0.94970703125
1,1596962592729523,0.10400390625,0.044677734375,0.07861328125,0.99041748046875,0.9375,0.1875,-0.4375,-0.07568359375,0.220703125,0.95947265625
2,1596962592757523,0.10406494140625,0.04473876953125,0.07861328125,0.99041748046875,0.4375,-0.5,-0.1875,-0.0869140625,0.22314453125,0.95849609375
3,1596962592780522,0.10400390625,0.0445556640625,0.07843017578125,0.99041748046875,-0.875,-1.3125,-1.125,-0.07568359375,0.2158203125,0.95703125
4,1596962592788523,0.10400390625,0.0445556640625,0.07843017578125,0.99041748046875,-0.5,-1.0,-0.9375,-0.0654296875,0.20751953125,0.95947265625
5,1596962592811522,0.1041259765625,0.04443359375,0.07843017578125,0.99041748046875,1.6875,-1.0625,0.25,-0.07470703125,0.197265625,0.96533203125
6,1596962592834523,0.1051025390625,0.0445556640625,0.07855224609375,0.99029541015625,6.5,-1.0,1.375,-0.09033203125,0.19677734375,0.95556640625
7,1596962592848522,0.105712890625,0.04437255859375,0.078857421875,0.990234375,1.5625,-2.0,1.9375,-0.0791015625,0.2314453125,0.93359375
8,1596962592872524,0.10552978515625,0.044189453125,0.07843017578125,0.99029541015625,-3.75,-1.625,-2.375,-0.076171875,0.24853515625,0.943359375
9,1596962592894522,0.10430908203125,0.0435791015625,0.07818603515625,0.990478515625,-7.5,-4.1875,-1.3125,-0.0830078125,0.2099609375,0.9462890625
10,1596962592909522,0.102294921875,0.042236328125,0.07818603515625,0.99072265625,-12.875,-6.375,0.0625,-0.06103515625,0.21728515625,0.95068359375
11,1596962592932524,0.10125732421875,0.04107666015625,0.0791015625,0.9908447265625,-3.1875,-4.875,5.625,-0.05615234375,0.16015625,0.99560546875
12,1596962592954524,0.10162353515625,0.04180908203125,0.07879638671875,0.99078369140625,3.125,2.6875,-1.875,-0.083984375,0.193359375,0.97705078125
13,1596962592975528,0.102783203125,0.0423583984375,0.07855224609375,0.99066162109375,4.375,4.25,-2.0,-0.0390625,0.24365234375,0.94921875
14,1596962592991522,0.10205078125,0.042236328125,0.07928466796875,0.99066162109375,-6.25,-1.6875,4.375,-0.0927734375,0.2314453125,0.953125
15,1596962593014521,0.100341796875,0.04180908203125,0.08026123046875,0.99078369140625,-9.9375,-2.625,5.6875,-0.09130859375,0.203125,0.98046875
16,1596962593036521,0.0997314453125,0.0418701171875,0.0814208984375,0.99078369140625,-2.0625,2.3125,6.0625,-0.04931640625,0.17822265625,0.9892578125
17,1596962593059524,0.101318359375,0.04327392578125,0.08245849609375,0.99041748046875,10.3125,11.3125,4.9375,-0.025390625,0.2099609375,1.0224609375
18,1596962593081531,0.1048583984375,0.04638671875,0.0823974609375,0.98992919921875,23.5625,17.875,-1.375,-0.04931640625,0.19384765625,0.99609375
19,1596962593112530,0.10894775390625,0.05010986328125,0.08197021484375,0.9893798828125,21.6875,14.6875,-2.5625,-0.14013671875,0.2685546875,0.943359375
20,1596962593114523,0.10748291015625,0.05133056640625,0.08349609375,0.98931884765625,-11.625,3.375,8.375,-0.1611328125,0.2685546875,0.93701171875
21,1596962593134662,0.10467529296875,0.05029296875,0.0855712890625,0.989501953125,-13.8125,-2.625,11.625,-0.0693359375,0.1591796875,0.947265625
22,1596962593155526,0.10693359375,0.0501708984375,0.08587646484375,0.9892578125,16.375,0.0625,2.25,-0.04931640625,0.15185546875,0.91748046875
23,1596962593173524,0.11212158203125,0.05035400390625,0.08563232421875,0.98870849609375,27.375,-0.9375,0.0,-0.06982421875,0.25537109375,0.923828125
24,1596962593194525,0.11578369140625,0.05047607421875,0.08575439453125,0.98822021484375,18.4375,0.1875,1.375,-0.06005859375,0.2685546875,0.9375
25,1596962593224523,0.11773681640625,0.05096435546875,0.085693359375,0.98797607421875,10.625,3.25,-0.1875,-0.06298828125,0.25244140625,0.9609375
26,1596962593231523,0.11846923828125,0.05181884765625,0.0859375,0.98785400390625,3.625,4.8125,0.75,-0.080078125,0.25732421875,0.96337890625
27,1596962593254522,0.11724853515625,0.05169677734375,0.08734130859375,0.98785400390625,-7.9375,-0.625,7.8125,-0.09765625,0.2373046875,0.9189453125
28,1596962593276527,0.1168212890625,0.05194091796875,0.08795166015625,0.98785400390625,1.5625,3.875,3.0,-0.05419921875,0.1826171875,0.98583984375
29,1596962593291522,0.1204833984375,0.05419921875,0.08709716796875,0.98736572265625,21.5,11.5625,-5.375,-0.072265625,0.26025390625,0.96337890625
30,1596962593315521,0.1234130859375,0.0560302734375,0.0865478515625,0.9869384765625,11.1875,6.0,-3.1875,-0.12841796875,0.35595703125,0.9755859375
31,1596962593335524,0.12213134765625,0.05615234375,0.08709716796875,0.987060546875,-8.5,1.4375,2.5625,-0.09228515625,0.26123046875,0.958984375
32,1596962593351526,0.12030029296875,0.05615234375,0.08758544921875,0.98724365234375,-7.25,0.25,2.6875,-0.107421875,0.20068359375,0.96337890625
33,1596962593390521,0.12078857421875,0.05633544921875,0.0880126953125,0.98712158203125,4.3125,0.0625,2.625,-0.0986328125,0.21337890625,0.9248046875
34,1596962593396522,0.12286376953125,0.0565185546875,0.088134765625,0.98687744140625,9.5,0.0625,1.3125,-0.09375,0.28369140625,0.9580078125
35,1596962593411525,0.12384033203125,0.05633544921875,0.0882568359375,0.98675537109375,2.25,-1.3125,0.6875,-0.08349609375,0.29443359375,0.93359375
36,1596962593449523,0.12310791015625,0.056396484375,0.088134765625,0.98681640625,-2.8125,1.1875,-1.125,-0.080078125,0.2353515625,0.96630859375
37,1596962593456524,0.12310791015625,0.05706787109375,0.08782958984375,0.98681640625,1.3125,3.375,-1.875,-0.09765625,0.23583984375,0.94873046875
38,1596962593471597,0.12371826171875,0.057373046875,0.0877685546875,0.9866943359375,2.125,-0.5,-0.0625,-0.11279296875,0.2685546875,0.92919921875
39,1596962593502522,0.1241455078125,0.05718994140625,0.08758544921875,0.9866943359375,0.625,-1.0625,-1.0625,-0.0849609375,0.27490234375,0.9521484375
40,1596962593516523,0.12420654296875,0.05712890625,0.0872802734375,0.9866943359375,-0.1875,-0.5,-1.75,-0.0927734375,0.26416015625,0.9609375
41,1596962593531520,0.124267578125,0.05731201171875,0.08685302734375,0.98675537109375,1.0625,1.0,-2.625,-0.0849609375,0.2490234375,0.9638671875
42,1596962593561528,0.12420654296875,0.05755615234375,0.086669921875,0.98675537109375,-1.1875,-0.875,-0.8125,-0.119140625,0.25927734375,0.923828125
43,1596962593576522,0.1239013671875,0.05712890625,0.08673095703125,0.98681640625,-0.9375,-2.6875,0.5625,-0.09375,0.23193359375,0.93994140625
44,1596962593591576,0.1243896484375,0.056884765625,0.08642578125,0.98675537109375,2.8125,-1.3125,-1.1875,-0.08544921875,0.251953125,0.94970703125
45,1596962593615522,0.124755859375,0.05694580078125,0.0863037109375,0.98675537109375,2.375,1.375,-1.125,-0.07275390625,0.25341796875,0.96435546875
46,1596962593636524,0.12445068359375,0.05743408203125,0.08612060546875,0.98675537109375,-2.75,1.75,-1.5,-0.10546875,0.26904296875,0.94287109375
47,1596962593665522,0.12335205078125,0.05743408203125,0.08624267578125,0.98687744140625,-5.125,-0.4375,0.875,-0.103515625,0.2294921875,0.94091796875
48,1596962593674523,0.123779296875,0.05755615234375,0.0863037109375,0.98681640625,2.9375,0.6875,0.375,-0.08984375,0.24267578125,0.9541015625
49,1596962593696521,0.1246337890625,0.05780029296875,0.0860595703125,0.98675537109375,4.125,0.8125,-1.3125,-0.09228515625,0.26708984375,0.9541015625
50,1596962593726531,0.12469482421875,0.057861328125,0.0860595703125,0.98675537109375,0.5625,0.75,-0.5,-0.1005859375,0.26513671875,0.94921875
51,1596962593734524,0.12420654296875,0.05767822265625,0.0860595703125,0.98681640625,-3.25,-2.6875,0.25,-0.1181640625,0.2509765625,0.93115234375
52,1596962593756522,0.124267578125,0.05718994140625,0.08599853515625,0.98681640625,1.6875,-2.375,0.0,-0.08154296875,0.22802734375,0.94873046875
53,1596962593779522,0.125244140625,0.0570068359375,0.0859375,0.9866943359375,3.3125,-1.1875,-0.0625,-0.0849609375,0.2880859375,0.94921875
54,1596962593794524,0.12506103515625,0.05694580078125,0.0859375,0.98675537109375,-1.5,0.4375,-0.375,-0.0830078125,0.25830078125,0.94921875
55,1596962593817525,0.12451171875,0.05718994140625,0.0859375,0.98681640625,-2.3125,0.0,0.0,-0.109375,0.23193359375,0.9306640625
56,1596962593831522,0.124755859375,0.0570068359375,0.0859375,0.98675537109375,1.25,-1.4375,0.375,-0.09375,0.255859375,0.9443359375
57,1596962593854523,0.12548828125,0.05712890625,0.08563232421875,0.9866943359375,3.375,0.0625,-1.75,-0.09521484375,0.271484375,0.97021484375
58,1596962593893522,0.12591552734375,0.0572509765625,0.08544921875,0.98663330078125,1.6875,-0.1875,-1.0625,-0.0966796875,0.2666015625,0.9404296875
59,1596962593897527,0.12530517578125,0.057373046875,0.085205078125,0.98675537109375,-2.75,1.0,-1.75,-0.08642578125,0.2431640625,0.9501953125
60,1596962593914526,0.125244140625,0.05731201171875,0.085205078125,0.98675537109375,0.5625,0.8125,0.5,-0.08349609375,0.23388671875,0.93505859375
61,1596962593944522,0.1259765625,0.0574951171875,0.08502197265625,0.9866943359375,2.25,-0.4375,-0.625,-0.1044921875,0.283203125,0.94580078125
62,1596962593957525,0.1258544921875,0.0577392578125,0.08477783203125,0.9866943359375,-0.4375,1.375,-1.6875,-0.08935546875,0.2529296875,0.9560546875
63,1596962593974521,0.12591552734375,0.0577392578125,0.08477783203125,0.9866943359375,0.625,0.6875,0.0,-0.091796875,0.27880859375,0.9345703125
64,1596962594000563,0.12530517578125,0.0576171875,0.08477783203125,0.98675537109375,-2.9375,-0.375,-0.0625,-0.09326171875,0.24462890625,0.951171875
65,1596962594018525,0.125244140625,0.0574951171875,0.08502197265625,0.98675537109375,0.0,-2.0,1.6875,-0.1083984375,0.24365234375,0.935546875
66,1596962594034523,0.12591552734375,0.05706787109375,0.08502197265625,0.9866943359375,3.0625,-1.9375,0.125,-0.080078125,0.26318359375,0.953125
67,1596962594064521,0.1260986328125,0.05718994140625,0.08489990234375,0.9866943359375,-0.25,1.25,-1.0625,-0.080078125,0.2744140625,0.95263671875
68,1596962594077525,0.1258544921875,0.05743408203125,0.0849609375,0.9866943359375,-1.6875,1.375,0.25,-0.0947265625,0.259765625,0.94580078125
69,1596962594109530,0.12548828125,0.05767822265625,0.0850830078125,0.9866943359375,-1.5,0.4375,0.875,-0.1103515625,0.24658203125,0.94677734375
70,1596962594116522,0.1258544921875,0.05767822265625,0.08514404296875,0.98663330078125,1.125,-1.0625,0.625,-0.10302734375,0.26171875,0.9296875
71,1596962594137528,0.1259765625,0.05731201171875,0.085205078125,0.9866943359375,-0.4375,-2.3125,0.375,-0.0888671875,0.2626953125,0.9345703125
72,1596962594169523,0.12542724609375,0.05694580078125,0.08526611328125,0.98675537109375,-3.3125,-1.3125,0.125,-0.08447265625,0.25439453125,0.95458984375
73,1596962594176544,0.1251220703125,0.05694580078125,0.08538818359375,0.98675537109375,-1.375,0.625,0.4375,-0.08544921875,0.24267578125,0.94140625
74,1596962594198526,0.124755859375,0.05712890625,0.0853271484375,0.98681640625,-2.6875,-0.0625,-0.4375,-0.10546875,0.26220703125,0.9345703125
75,1596962594227526,0.12445068359375,0.05682373046875,0.08526611328125,0.98687744140625,-2.4375,-1.25,-0.1875,-0.08544921875,0.25634765625,0.951171875
76,1596962594236521,0.1251220703125,0.0565185546875,0.08502197265625,0.98681640625,2.25,-3.0,-0.9375,-0.10107421875,0.279296875,0.962890625
77,1596962594259523,0.12445068359375,0.05596923828125,0.08477783203125,0.98699951171875,-4.9375,-4.1875,-1.0,-0.10498046875,0.26025390625,0.93408203125
78,1596962594281526,0.123046875,0.05499267578125,0.08514404296875,0.9871826171875,-7.4375,-3.8125,1.8125,-0.0712890625,0.22607421875,0.94873046875
79,1596962594297521,0.12298583984375,0.05474853515625,0.08514404296875,0.9871826171875,-0.6875,-1.0625,0.0625,-0.0849609375,0.251953125,0.94873046875
80,1596962594334524,0.12322998046875,0.05474853515625,0.08477783203125,0.9871826171875,0.4375,-0.5,-1.875,-0.0849609375,0.2646484375,0.95458984375
81,1596962594337523,0.1239013671875,0.0550537109375,0.08416748046875,0.98712158203125,1.4375,0.5625,-3.875,-0.09375,0.28857421875,0.9423828125
82,1596962594356523,0.1219482421875,0.05450439453125,0.08380126953125,0.9874267578125,-12.0,-3.6875,-2.0,-0.0986328125,0.2490234375,0.9267578125
83,1596962594395523,0.11981201171875,0.05316162109375,0.0841064453125,0.98773193359375,-7.9375,-6.3125,2.1875,-0.0869140625,0.17333984375,0.98583984375
84,1596962594401523,0.12005615234375,0.05303955078125,0.08447265625,0.98773193359375,2.1875,-1.4375,2.375,-0.0966796875,0.2294921875,0.9443359375
85,1596962594416522,0.12091064453125,0.0531005859375,0.08428955078125,0.98760986328125,0.625,-1.3125,-0.6875,-0.10107421875,0.30859375,0.9638671875
86,1596962594448576,0.12115478515625,0.05328369140625,0.0836181640625,0.98760986328125,-0.4375,0.875,-4.1875,-0.07958984375,0.27880859375,0.95947265625
87,1596962594455522,0.11981201171875,0.05377197265625,0.08258056640625,0.98785400390625,-7.5625,1.5625,-6.625,-0.10107421875,0.251953125,0.96923828125
88,1596962594476529,0.11798095703125,0.05340576171875,0.08221435546875,0.98809814453125,-9.375,-4.3125,-1.75,-0.123046875,0.21728515625,0.94921875
89,1596962594530523,0.116943359375,0.0521240234375,0.08251953125,0.98828125,-4.6875,-7.3125,2.3125,-0.09130859375,0.2001953125,0.92919921875
90,1596962594537525,0.1168212890625,0.05145263671875,0.08233642578125,0.98834228515625,0.0625,-3.125,-0.625,-0.0673828125,0.20751953125,0.91796875
91,1596962594539520,0.1165771484375,0.05120849609375,0.08148193359375,0.98846435546875,-0.125,-1.25,-4.9375,-0.07373046875,0.21875,0.94970703125
92,1596962594559522,0.11700439453125,0.05108642578125,0.0804443359375,0.988525390625,4.1875,-0.25,-5.9375,-0.060546875,0.21240234375,0.955078125
93,1596962594590606,0.11767578125,0.05108642578125,0.0802001953125,0.98846435546875,3.6875,-0.125,-1.3125,-0.07568359375,0.24072265625,0.95458984375
94,1596962594596524,0.11737060546875,0.05108642578125,0.08074951171875,0.98846435546875,-3.375,0.4375,2.875,-0.08154296875,0.2607421875,0.95703125
95,1596962594619526,0.11651611328125,0.051513671875,0.080810546875,0.988525390625,-5.8125,1.6875,0.0,-0.10205078125,0.24951171875,0.9609375
96,1596962594633531,0.1156005859375,0.0516357421875,0.080810546875,0.9886474609375,-5.125,-0.1875,-0.25,-0.09765625,0.236328125,0.966796875
97,1596962594656527,0.1148681640625,0.051513671875,0.080810546875,0.98870849609375,-4.0,-1.3125,0.0625,-0.10009765625,0.23095703125,0.9736328125
98,1596962594679521,0.11553955078125,0.051513671875,0.08087158203125,0.9886474609375,3.5,-1.4375,0.875,-0.09765625,0.23681640625,0.93798828125
99,1596962594702525,0.1158447265625,0.05133056640625,0.08087158203125,0.98858642578125,1.1875,-0.9375,0.0,-0.080078125,0.23583984375,0.953125
