index,timestamp,orientation_x,orientation_y,orientation_z,orientation_w,gyroscope_x,gyroscope_y,gyroscope_z,acceleration_x,acceleration_y,acceleration_z
0,1596992111960379,-0.01556396484375,0.12554931640625,0.98004150390625,0.153076171875,-0.75,-0.5,-0.0625,-0.06787109375,0.23486328125,0.94580078125
1,1596992111981380,-0.0152587890625,0.12548828125,0.98004150390625,0.15313720703125,-0.75,-1.4375,-0.3125,-0.06201171875,0.24462890625,0.95947265625
2,1596992111998384,-0.01507568359375,0.12591552734375,0.97998046875,0.15313720703125,1.875,-0.25,-0.0625,-0.0615234375,0.25244140625,0.9716796875
3,1596992112020381,-0.0150146484375,0.12591552734375,0.97998046875,0.15313720703125,-0.25,-0.1875,0.3125,-0.06396484375,0.25341796875,0.95849609375
4,1596992112041379,-0.0150146484375,0.12554931640625,0.98004150390625,0.15313720703125,-1.375,-0.0625,-0.0625,-0.06201171875,0.22998046875,0.9677734375
5,1596992112058396,-0.0150146484375,0.12554931640625,0.98004150390625,0.15313720703125,0.8125,0.1875,-0.25,-0.0654296875,0.22998046875,0.955078125
6,1596992112080381,-0.0150146484375,0.12554931640625,0.98004150390625,0.15313720703125,0.9375,0.0625,-0.75,-0.0673828125,0.248046875,0.955078125
7,1596992112103379,-0.01495361328125,0.12542724609375,0.98004150390625,0.15325927734375,-1.5,-0.3125,-0.9375,-0.06201171875,0.2490234375,0.95263671875
8,1596992112118383,-0.0150146484375,0.12542724609375,0.98004150390625,0.1533203125,-1.0625,0.6875,-0.5,-0.0634765625,0.251953125,0.96484375
9,1596992112140379,-0.0152587890625,0.12530517578125,0.98004150390625,0.1533203125,-0.125,1.25,-0.25,-0.068359375,0.2294921875,0.9677734375
10,1596992112163377,-0.015625,0.1253662109375,0.98004150390625,0.15325927734375,1.125,1.8125,0.3125,-0.0732421875,0.224609375,0.9560546875
11,1596992112178379,-0.01593017578125,0.12548828125,0.98004150390625,0.15301513671875,1.3125,2.0,1.0625,-0.0654296875,0.220703125,0.95263671875
12,1596992112200379,-0.01611328125,0.12603759765625,0.97998046875,0.15289306640625,1.25,0.8125,0.75,-0.0791015625,0.25927734375,0.9375
13,1596992112224381,-0.01611328125,0.12646484375,0.97998046875,0.15277099609375,3.8125,0.375,0.8125,-0.0751953125,0.22509765625,0.9697265625
14,1596992112237378,-0.01690673828125,0.12872314453125,0.979736328125,0.1524658203125,14.1875,5.6875,1.5625,-0.08447265625,0.2080078125,0.94970703125
15,1596992112260378,-0.0164794921875,0.1326904296875,0.979248046875,0.15185546875,24.0,1.1875,3.6875,-0.072265625,0.21826171875,0.88427734375
16,1596992112283380,-0.01531982421875,0.13751220703125,0.9786376953125,0.15167236328125,28.625,-3.5625,2.375,-0.09619140625,0.267578125,0.97412109375
17,1596992112297378,-0.01324462890625,0.14373779296875,0.97772216796875,0.15216064453125,30.4375,-3.625,-2.8125,-0.02783203125,0.40185546875,1.0341796875
18,1596992112320377,-0.01300048828125,0.14691162109375,0.977294921875,0.152099609375,13.3125,1.25,0.125,-0.072265625,0.35107421875,0.943359375
19,1596992112343378,-0.01275634765625,0.1455078125,0.9774169921875,0.15252685546875,-7.25,-0.0625,-2.9375,-0.033203125,0.2802734375,0.9873046875
20,1596992112364377,-0.01287841796875,0.14703369140625,0.97698974609375,0.153564453125,7.875,8.4375,-8.375,0.03076171875,0.32421875,1.0341796875
21,1596992112380379,-0.017822265625,0.14971923828125,0.97637939453125,0.154296875,8.25,28.125,-8.6875,-0.1015625,0.3388671875,0.9833984375
22,1596992112403379,-0.0223388671875,0.14697265625,0.97637939453125,0.1563720703125,-17.875,20.5,-15.5625,-0.1015625,0.26708984375,0.97802734375
23,1596992112424377,-0.0263671875,0.14715576171875,0.9759521484375,0.15826416015625,-4.5,19.75,-14.0625,-0.111328125,0.3046875,0.919921875
24,1596992112440377,-0.029052734375,0.14678955078125,0.9757080078125,0.15972900390625,-5.625,12.625,-10.875,-0.111328125,0.2822265625,0.90625
25,1596992112463380,-0.03094482421875,0.14666748046875,0.9755859375,0.1602783203125,0.25,10.125,-4.5625,-0.1025390625,0.22216796875,0.88818359375
26,1596992112484378,-0.03204345703125,0.1473388671875,0.97540283203125,0.1605224609375,6.125,6.125,-1.75,-0.109375,0.22021484375,0.92578125
27,1596992112500377,-0.0325927734375,0.1470947265625,0.975341796875,0.16119384765625,1.9375,0.0625,-3.1875,-0.14306640625,0.21484375,0.92626953125
28,1596992112523379,-0.03228759765625,0.14752197265625,0.97515869140625,0.16180419921875,4.3125,-2.375,-3.0,-0.1181640625,0.25244140625,0.94091796875
29,1596992112537378,-0.03179931640625,0.14862060546875,0.97503662109375,0.16156005859375,7.6875,-0.25,1.5625,-0.09130859375,0.2607421875,0.947265625
30,1596992112560378,-0.031494140625,0.149658203125,0.9749755859375,0.1611328125,8.5625,-1.875,3.375,-0.1328125,0.25146484375,0.9775390625
31,1596992112583379,-0.0311279296875,0.15008544921875,0.974853515625,0.16168212890625,4.0625,-2.875,-2.375,-0.12255859375,0.2666015625,0.96923828125
32,1596992112604379,-0.03125,0.1490478515625,0.97491455078125,0.162109375,-2.25,-1.4375,-2.125,-0.1220703125,0.236328125,0.9833984375
33,1596992112621379,-0.03118896484375,0.14874267578125,0.97491455078125,0.1624755859375,-0.375,-1.8125,-1.75,-0.12451171875,0.267578125,0.96923828125
34,1596992112643378,-0.03094482421875,0.14923095703125,0.97479248046875,0.16265869140625,-1.0,0.875,-1.5625,-0.0791015625,0.32568359375,0.91845703125
35,1596992112664377,-0.0316162109375,0.149169921875,0.97491455078125,0.1619873046875,-4.0,5.6875,2.25,-0.08251953125,0.31396484375,0.91796875
36,1596992112680377,-0.03289794921875,0.14892578125,0.97509765625,0.16070556640625,-1.5,8.5,6.1875,-0.10595703125,0.25634765625,0.9453125
37,1596992112702377,-0.0340576171875,0.1497802734375,0.97509765625,0.15960693359375,3.25,7.3125,5.625,-0.12548828125,0.275390625,0.93212890625
38,1596992112724407,-0.03466796875,0.150390625,0.97509765625,0.15911865234375,0.8125,3.6875,2.375,-0.1181640625,0.30224609375,0.9150390625
39,1596992112740377,-0.034912109375,0.15167236328125,0.9749755859375,0.1585693359375,2.375,3.4375,2.3125,-0.10302734375,0.33447265625,0.892578125
40,1596992112763378,-0.03515625,0.15228271484375,0.97503662109375,0.15771484375,0.875,4.0625,3.875,-0.087890625,0.298828125,0.90185546875
41,1596992112784380,-0.03546142578125,0.15301513671875,0.97503662109375,0.1568603515625,3.5,4.25,4.0625,-0.09814453125,0.2841796875,0.92724609375
42,1596992112800378,-0.03533935546875,0.1534423828125,0.9749755859375,0.15655517578125,1.75,1.125,1.6875,-0.10107421875,0.29541015625,0.93505859375
43,1596992112824379,-0.03509521484375,0.15447998046875,0.974853515625,0.15643310546875,3.625,-0.1875,0.3125,-0.10693359375,0.31640625,0.91796875
44,1596992112844378,-0.03485107421875,0.1556396484375,0.9747314453125,0.15631103515625,4.4375,0.0625,0.875,-0.11181640625,0.3193359375,0.9208984375
45,1596992112861378,-0.03472900390625,0.15625,0.974609375,0.15631103515625,3.125,-0.8125,0.0,-0.1220703125,0.29296875,0.9345703125
46,1596992112883381,-0.03436279296875,0.15753173828125,0.974365234375,0.15655517578125,5.9375,-1.1875,-1.125,-0.119140625,0.3173828125,0.9306640625
47,1596992112904381,-0.03424072265625,0.157958984375,0.9742431640625,0.1568603515625,2.375,-1.0,-1.625,-0.12353515625,0.30029296875,0.9443359375
48,1596992112921381,-0.03399658203125,0.15936279296875,0.9739990234375,0.15716552734375,6.125,-0.5,-1.6875,-0.11669921875,0.32666015625,0.92431640625
49,1596992112943419,-0.0340576171875,0.15997314453125,0.97381591796875,0.15753173828125,2.625,0.375,-2.125,-0.11865234375,0.30859375,0.93505859375
50,1596992112964381,-0.0341796875,0.16009521484375,0.9737548828125,0.15802001953125,1.6875,-0.375,-2.375,-0.1240234375,0.283203125,0.93310546875
51,1596992112980377,-0.0340576171875,0.160400390625,0.97357177734375,0.15863037109375,1.125,-1.5625,-3.625,-0.12109375,0.3037109375,0.91796875
52,1596992113003382,-0.033935546875,0.16064453125,0.97344970703125,0.1591796875,0.0625,-1.0625,-3.125,-0.11767578125,0.32080078125,0.92431640625
53,1596992113024377,-0.03399658203125,0.1610107421875,0.973388671875,0.15936279296875,1.125,0.6875,-1.25,-0.1103515625,0.30810546875,0.92333984375
54,1596992113040379,-0.03411865234375,0.1611328125,0.97332763671875,0.15936279296875,1.5625,1.0625,-0.3125,-0.11376953125,0.28369140625,0.93505859375
55,1596992113063378,-0.0341796875,0.16107177734375,0.97332763671875,0.15948486328125,1.5,0.375,-0.625,-0.1123046875,0.271484375,0.9365234375
56,1596992113085377,-0.03399658203125,0.16107177734375,0.9732666015625,0.1597900390625,0.1875,-0.75,-1.5,-0.10791015625,0.30029296875,0.92333984375
57,1596992113100379,-0.033935546875,0.16070556640625,0.97332763671875,0.1597900390625,-1.3125,-0.3125,-0.1875,-0.11181640625,0.283203125,0.92626953125
58,1596992113123378,-0.0338134765625,0.1610107421875,0.97332763671875,0.15960693359375,2.5625,0.0,1.125,-0.111328125,0.28271484375,0.93408203125
59,1596992113145378,-0.03369140625,0.1610107421875,0.97332763671875,0.15960693359375,1.5,-1.3125,0.5,-0.1220703125,0.2783203125,0.93408203125
60,1596992113160379,-0.03338623046875,0.1617431640625,0.97320556640625,0.15972900390625,5.5,-1.625,0.0625,-0.126953125,0.28564453125,0.93994140625
61,1596992113183381,-0.03271484375,0.1627197265625,0.9730224609375,0.15997314453125,5.8125,-3.3125,-0.875,-0.1171875,0.3076171875,0.9296875
62,1596992113205377,-0.0321044921875,0.16339111328125,0.972900390625,0.16033935546875,3.3125,-2.8125,-1.625,-0.1083984375,0.31494140625,0.91357421875
63,1596992113219379,-0.03155517578125,0.16375732421875,0.9727783203125,0.16064453125,1.5625,-2.0,-1.6875,-0.09375,0.3154296875,0.91064453125
64,1596992113243379,-0.031494140625,0.163818359375,0.9727783203125,0.16064453125,-0.375,-0.375,-0.625,-0.08837890625,0.328125,0.90234375
65,1596992113265378,-0.0316162109375,0.163818359375,0.97283935546875,0.16021728515625,-0.125,1.8125,2.0625,-0.10302734375,0.30322265625,0.9345703125
66,1596992113279377,-0.0318603515625,0.1640625,0.97283935546875,0.1597900390625,2.0625,1.75,2.375,-0.11572265625,0.29052734375,0.94775390625
67,1596992113303379,-0.0318603515625,0.1640625,0.97283935546875,0.15972900390625,0.9375,0.375,-0.125,-0.11669921875,0.3193359375,0.93310546875
68,1596992113325378,-0.03179931640625,0.1641845703125,0.97283935546875,0.15972900390625,-0.5625,0.5,-0.9375,-0.11181640625,0.34326171875,0.91845703125
69,1596992113339379,-0.03204345703125,0.16400146484375,0.972900390625,0.15966796875,-2.125,1.375,0.0625,-0.10791015625,0.314453125,0.92333984375
70,1596992113363378,-0.03228759765625,0.1636962890625,0.972900390625,0.1597900390625,-1.125,0.875,-0.9375,-0.11474609375,0.29248046875,0.939453125
71,1596992113385378,-0.0322265625,0.16375732421875,0.97283935546875,0.16009521484375,1.25,-0.1875,-1.5,-0.1123046875,0.29296875,0.94384765625
72,1596992113406382,-0.031982421875,0.1640625,0.9727783203125,0.160400390625,2.0625,-1.3125,-1.5625,-0.1142578125,0.31298828125,0.9443359375
73,1596992113422377,-0.0316162109375,0.16461181640625,0.97259521484375,0.16070556640625,3.5,-2.0,-1.4375,-0.11474609375,0.31103515625,0.94482421875
74,1596992113445379,-0.03118896484375,0.16571044921875,0.972412109375,0.1610107421875,5.0,-1.3125,-1.8125,-0.111328125,0.3330078125,0.93505859375
75,1596992113459380,-0.0311279296875,0.16619873046875,0.97222900390625,0.16143798828125,3.0625,-0.4375,-2.25,-0.115234375,0.31591796875,0.95703125
76,1596992113482379,-0.031005859375,0.16650390625,0.97210693359375,0.1619873046875,2.125,-0.625,-3.1875,-0.10888671875,0.30859375,0.93115234375
77,1596992113505379,-0.03106689453125,0.1669921875,0.971923828125,0.16278076171875,-0.3125,0.5,-4.9375,-0.10595703125,0.34716796875,0.90185546875
78,1596992113519379,-0.0316162109375,0.166748046875,0.97186279296875,0.16326904296875,-3.25,2.125,-3.625,-0.1123046875,0.32373046875,0.900390625
79,1596992113543380,-0.03216552734375,0.16693115234375,0.9718017578125,0.16326904296875,0.6875,3.6875,-0.9375,-0.1064453125,0.29931640625,0.90283203125
80,1596992113573382,-0.0328369140625,0.16680908203125,0.9718017578125,0.1632080078125,-0.4375,3.4375,-0.1875,-0.11669921875,0.28759765625,0.912109375
81,1596992113586379,-0.0330810546875,0.1668701171875,0.97174072265625,0.16339111328125,0.6875,1.0,-0.9375,-0.119140625,0.2900390625,0.89697265625
82,1596992113602378,-0.0330810546875,0.16693115234375,0.97174072265625,0.16339111328125,-0.75,-0.1875,-0.9375,-0.1142578125,0.32421875,0.89013671875
83,1596992113625376,-0.033203125,0.166259765625,0.97186279296875,0.16326904296875,-3.4375,-0.3125,0.5625,-0.11962890625,0.28759765625,0.90185546875
84,1596992113646377,-0.03302001953125,0.16632080078125,0.97186279296875,0.16314697265625,1.75,-1.25,1.125,-0.12060546875,0.27880859375,0.9033203125
85,1596992113663378,-0.03228759765625,0.1678466796875,0.9716796875,0.16302490234375,11.375,-3.125,2.0,-0.1201171875,0.27001953125,0.88427734375
86,1596992113685378,-0.0302734375,0.1712646484375,0.97119140625,0.16278076171875,21.125,-9.375,4.0,-0.1259765625,0.29345703125,0.85205078125
87,1596992113706381,-0.02685546875,0.175537109375,0.97052001953125,0.16253662109375,25.4375,-13.875,4.125,-0.09375,0.3564453125,0.9130859375
88,1596992113723381,-0.02484130859375,0.1787109375,0.9700927734375,0.1622314453125,15.1875,-7.3125,3.0625,-0.095703125,0.400390625,0.919921875
89,1596992113745380,-0.02362060546875,0.17919921875,0.97003173828125,0.16204833984375,3.8125,-5.125,1.875,-0.09228515625,0.34033203125,0.93359375
90,1596992113766380,-0.02252197265625,0.1787109375,0.97015380859375,0.162109375,-1.0,-7.0625,1.0,-0.10302734375,0.3193359375,0.9111328125
91,1596992113783381,-0.0213623046875,0.177490234375,0.97039794921875,0.16229248046875,-5.5625,-8.5625,0.75,-0.11083984375,0.3271484375,0.91943359375
92,1596992113805388,-0.01983642578125,0.17596435546875,0.97064208984375,0.1624755859375,-8.6875,-10.75,0.625,-0.10400390625,0.34423828125,0.92041015625
93,1596992113826377,-0.018310546875,0.17437744140625,0.970947265625,0.1624755859375,-11.8125,-7.625,0.125,-0.05322265625,0.396484375,0.93994140625
94,1596992113843377,-0.0172119140625,0.17083740234375,0.9715576171875,0.16265869140625,-22.3125,-12.6875,1.1875,-0.13232421875,0.3603515625,0.9033203125
95,1596992113865378,-0.01580810546875,0.1668701171875,0.97222900390625,0.16302490234375,-21.0,-11.6875,-0.5625,-0.0771484375,0.2978515625,0.9033203125
96,1596992113886378,-0.01416015625,0.16448974609375,0.97259521484375,0.16351318359375,-16.0625,-12.1875,-1.3125,-0.08251953125,0.36279296875,0.908203125
97,1596992113902381,-0.012939453125,0.16094970703125,0.97314453125,0.1636962890625,-17.4375,-10.3125,0.25,-0.0751953125,0.27783203125,0.93603515625
98,1596992113926379,-0.0113525390625,0.15899658203125,0.9735107421875,0.163818359375,-9.5625,-10.25,0.875,-0.06640625,0.2978515625,0.92626953125
99,1596992113946378,-0.009765625,0.15667724609375,0.973876953125,0.16400146484375,-12.375,-10.9375,0.5,-0.06494140625,0.30419921875,0.9345703125
100,1596992113962378,-0.0084228515625,0.15411376953125,0.9742431640625,0.16424560546875,-14.6875,-9.4375,-0.125,-0.05712890625,0.314453125,0.9384765625
