index,timestamp,orientation_x,orientation_y,orientation_z,orientation_w,gyroscope_x,gyroscope_y,gyroscope_z,acceleration_x,acceleration_y,acceleration_z
0,1596992109336450,-0.01019287109375,0.12847900390625,0.97894287109375,0.157958984375,-1.375,0.9375,0.3125,-0.05615234375,0.26318359375,0.95361328125
1,1596992109355383,-0.01025390625,0.12811279296875,0.97900390625,0.15789794921875,-1.875,0.0625,0.5625,-0.0615234375,0.240234375,0.96728515625
2,1596992109373378,-0.01025390625,0.1280517578125,0.97900390625,0.15789794921875,-0.5625,-0.6875,-0.6875,-0.0615234375,0.23828125,0.9609375
3,1596992109396378,-0.010009765625,0.128173828125,0.97894287109375,0.15814208984375,0.125,-1.375,-1.5,-0.05712890625,0.2568359375,0.9541015625
4,1596992109415394,-0.010009765625,0.12823486328125,0.97894287109375,0.15814208984375,-0.4375,-0.6875,-0.6875,-0.0498046875,0.251953125,0.94677734375
5,1596992109433381,-0.0098876953125,0.1285400390625,0.97894287109375,0.158203125,1.9375,-0.25,-0.25,-0.05859375,0.24951171875,0.96533203125
6,1596992109456377,-0.0098876953125,0.12860107421875,0.9788818359375,0.158203125,0.9375,0.25,-0.8125,-0.05712890625,0.2578125,0.955078125
7,1596992109475377,-0.0098876953125,0.12860107421875,0.97894287109375,0.158203125,-0.9375,0.4375,-0.75,-0.0595703125,0.236328125,0.95947265625
8,1596992109493379,-0.00982666015625,0.1285400390625,0.97894287109375,0.158203125,0.875,0.9375,-0.1875,-0.048828125,0.23779296875,0.93359375
9,1596992109516379,-0.00994873046875,0.12884521484375,0.9788818359375,0.15826416015625,1.1875,1.0,-0.75,-0.0556640625,0.251953125,0.96044921875
10,1596992109535379,-0.01007080078125,0.12908935546875,0.97882080078125,0.1583251953125,1.0,1.1875,-0.6875,-0.05419921875,0.25146484375,0.9560546875
11,1596992109553377,-0.010009765625,0.129150390625,0.97882080078125,0.1583251953125,-0.0625,0.9375,-0.3125,-0.05859375,0.25830078125,0.96142578125
12,1596992109576378,-0.0103759765625,0.12896728515625,0.97882080078125,0.15826416015625,-0.8125,1.875,0.375,-0.05859375,0.2421875,0.96875
13,1596992109595378,-0.01116943359375,0.1290283203125,0.97894287109375,0.15753173828125,1.625,5.4375,3.5625,-0.05322265625,0.20703125,0.9091796875
14,1596992109614381,-0.01153564453125,0.129150390625,0.97900390625,0.15692138671875,1.875,3.1875,3.1875,-0.052734375,0.2060546875,0.9130859375
15,1596992109636380,-0.01220703125,0.13330078125,0.9783935546875,0.15716552734375,22.8125,10.3125,-3.1875,-0.02294921875,0.2685546875,0.994140625
16,1596992109655386,-0.01422119140625,0.1387939453125,0.97784423828125,0.156005859375,21.875,14.5625,5.1875,-0.11279296875,0.39208984375,1.01123046875
17,1596992109673377,-0.01763916015625,0.1346435546875,0.97857666015625,0.154541015625,-19.0,11.8125,7.4375,-0.1455078125,0.1416015625,0.9609375
18,1596992109696379,-0.0184326171875,0.13543701171875,0.978515625,0.1539306640625,8.0625,9.625,2.3125,-0.0224609375,0.19580078125,0.97021484375
19,1596992109715378,-0.0198974609375,0.14178466796875,0.97747802734375,0.15472412109375,20.5,14.75,-7.625,-0.0546875,0.47021484375,0.89599609375
20,1596992109733386,-0.02252197265625,0.13751220703125,0.97796630859375,0.15509033203125,-32.9375,10.125,-4.625,-0.083984375,0.32373046875,0.84716796875
21,1596992109756383,-0.0244140625,0.13348388671875,0.97869873046875,0.15399169921875,-18.1875,10.3125,4.5625,-0.04833984375,0.1484375,0.94873046875
22,1596992109775377,-0.02630615234375,0.133544921875,0.9788818359375,0.15234375,2.8125,11.4375,8.4375,-0.09912109375,0.18505859375,0.95654296875
23,1596992109793380,-0.02777099609375,0.1328125,0.9791259765625,0.15118408203125,-3.125,6.375,6.5,-0.1259765625,0.21240234375,0.96728515625
24,1596992109816384,-0.0296630859375,0.130615234375,0.9794921875,0.15045166015625,-14.0,7.5625,2.875,-0.1220703125,0.24609375,0.98486328125
25,1596992109837378,-0.0301513671875,0.12921142578125,0.97979736328125,0.14959716796875,-6.1875,1.5,4.875,-0.1103515625,0.21337890625,0.99755859375
26,1596992109853378,-0.0291748046875,0.13116455078125,0.97967529296875,0.1488037109375,9.75,-3.375,5.3125,-0.095703125,0.26318359375,0.916015625
27,1596992109876377,-0.028564453125,0.1314697265625,0.97967529296875,0.14837646484375,0.75,-2.3125,2.5,-0.0859375,0.27197265625,0.96826171875
28,1596992109897381,-0.02838134765625,0.13232421875,0.979736328125,0.14752197265625,7.375,-0.1875,5.4375,-0.10986328125,0.2314453125,1.02783203125
29,1596992109913377,-0.0277099609375,0.13543701171875,0.97930908203125,0.1475830078125,14.125,0.6875,-0.4375,-0.07421875,0.32666015625,0.998046875
30,1596992109936379,-0.0284423828125,0.13616943359375,0.97900390625,0.1485595703125,0.3125,2.8125,-6.25,-0.10546875,0.29052734375,0.88818359375
31,1596992109957379,-0.02880859375,0.137451171875,0.97882080078125,0.1485595703125,5.75,6.8125,-1.5,-0.0400390625,0.26708984375,0.92724609375
32,1596992109973376,-0.02978515625,0.13818359375,0.978759765625,0.148193359375,3.875,7.6875,1.0,-0.07568359375,0.248046875,0.94384765625
33,1596992109996379,-0.03082275390625,0.13995361328125,0.978515625,0.14813232421875,10.3125,7.4375,-0.1875,-0.103515625,0.2470703125,0.955078125
34,1596992110017379,-0.031494140625,0.1417236328125,0.97821044921875,0.14813232421875,9.875,5.5625,-0.6875,-0.09814453125,0.25634765625,0.93701171875
35,1596992110033378,-0.0321044921875,0.1434326171875,0.9779052734375,0.14849853515625,8.0,4.75,-2.75,-0.0966796875,0.28076171875,0.91796875
36,1596992110056378,-0.03277587890625,0.143310546875,0.97784423828125,0.1488037109375,-1.75,3.3125,-2.25,-0.1044921875,0.263671875,0.89697265625
37,1596992110077377,-0.03302001953125,0.14361572265625,0.977783203125,0.14892578125,0.3125,1.875,-1.375,-0.0986328125,0.2763671875,0.91162109375
38,1596992110099379,-0.033447265625,0.14385986328125,0.97772216796875,0.14898681640625,0.125,1.625,-0.375,-0.11474609375,0.27294921875,0.91455078125
39,1596992110116378,-0.0338134765625,0.14349365234375,0.97772216796875,0.1490478515625,-0.875,1.6875,-0.5625,-0.1083984375,0.24560546875,0.95849609375
40,1596992110137379,-0.03399658203125,0.1436767578125,0.9776611328125,0.14923095703125,-0.0625,0.6875,-1.25,-0.11572265625,0.28076171875,0.93994140625
41,1596992110153379,-0.03387451171875,0.14300537109375,0.97772216796875,0.1494140625,-1.75,-1.8125,-0.9375,-0.11328125,0.240234375,0.95361328125
42,1596992110182378,-0.0335693359375,0.1429443359375,0.97772216796875,0.1497802734375,-1.3125,-2.4375,-1.875,-0.11328125,0.28271484375,0.93603515625
43,1596992110198377,-0.0330810546875,0.141845703125,0.97784423828125,0.1502685546875,-7.0,-3.0625,-2.8125,-0.0888671875,0.287109375,0.955078125
44,1596992110213379,-0.03302001953125,0.140380859375,0.97796630859375,0.150634765625,-9.5,-2.125,-2.4375,-0.111328125,0.279296875,0.9462890625
45,1596992110236379,-0.03271484375,0.13873291015625,0.97821044921875,0.15087890625,-8.875,-2.875,-1.1875,-0.09716796875,0.25634765625,0.95556640625
46,1596992110258379,-0.032470703125,0.13702392578125,0.97833251953125,0.1513671875,-9.125,-3.4375,-2.875,-0.11181640625,0.26123046875,0.9931640625
47,1596992110278380,-0.03240966796875,0.136962890625,0.978271484375,0.15191650390625,-0.125,-1.875,-2.75,-0.11767578125,0.2587890625,0.96435546875
48,1596992110296377,-0.0318603515625,0.13616943359375,0.9783935546875,0.15216064453125,-4.0625,-1.9375,-1.6875,-0.07568359375,0.25634765625,0.9560546875
49,1596992110318382,-0.031982421875,0.13629150390625,0.978271484375,0.152587890625,-0.9375,0.25,-2.5625,-0.10546875,0.271484375,0.93701171875
50,1596992110338378,-0.0322265625,0.13568115234375,0.97833251953125,0.1529541015625,-1.8125,0.625,-2.0625,-0.10693359375,0.23486328125,0.98046875
51,1596992110356379,-0.03179931640625,0.1361083984375,0.97821044921875,0.1533203125,3.375,-1.6875,-2.0625,-0.09375,0.2490234375,0.9541015625
52,1596992110378382,-0.03155517578125,0.136962890625,0.97796630859375,0.15399169921875,2.1875,-0.625,-3.9375,-0.09619140625,0.2958984375,0.9365234375
53,1596992110398378,-0.0321044921875,0.135986328125,0.97802734375,0.15447998046875,-7.5,1.6875,-3.5,-0.1025390625,0.26708984375,0.92724609375
54,1596992110416379,-0.03253173828125,0.1351318359375,0.97808837890625,0.15472412109375,-3.625,1.4375,-1.6875,-0.099609375,0.228515625,0.94775390625
55,1596992110443382,-0.032470703125,0.13507080078125,0.97808837890625,0.1549072265625,0.5,0.0625,-1.1875,-0.09765625,0.23583984375,0.93896484375
56,1596992110458377,-0.032470703125,0.13470458984375,0.97808837890625,0.15521240234375,-1.8125,-0.375,-1.75,-0.1015625,0.2470703125,0.94677734375
57,1596992110476378,-0.0325927734375,0.1339111328125,0.9781494140625,0.155517578125,-4.625,-0.5625,-1.9375,-0.1044921875,0.24462890625,0.92822265625
58,1596992110498380,-0.03277587890625,0.13311767578125,0.97821044921875,0.15582275390625,-4.125,-0.375,-1.875,-0.109375,0.2373046875,0.93896484375
59,1596992110518385,-0.0328369140625,0.132568359375,0.97821044921875,0.15606689453125,-2.8125,-1.1875,-1.125,-0.11474609375,0.23779296875,0.93701171875
60,1596992110536380,-0.03271484375,0.1329345703125,0.9781494140625,0.1561279296875,2.0,-0.4375,-0.1875,-0.10693359375,0.24560546875,0.951171875
61,1596992110558380,-0.0325927734375,0.1326904296875,0.97821044921875,0.15618896484375,-0.9375,-1.625,-0.375,-0.1123046875,0.24267578125,0.9404296875
62,1596992110578378,-0.03253173828125,0.1328125,0.9781494140625,0.15643310546875,-0.25,-1.1875,-1.1875,-0.11083984375,0.2587890625,0.9453125
63,1596992110596377,-0.03228759765625,0.13275146484375,0.9781494140625,0.15643310546875,-1.3125,-1.0,-0.25,-0.1005859375,0.2607421875,0.9482421875
64,1596992110618376,-0.0323486328125,0.1326904296875,0.9781494140625,0.15643310546875,0.375,-0.4375,0.5,-0.10888671875,0.2353515625,0.966796875
65,1596992110638377,-0.03216552734375,0.1331787109375,0.97808837890625,0.15643310546875,3.5625,-0.9375,0.5625,-0.1083984375,0.2392578125,0.95263671875
66,1596992110656382,-0.03173828125,0.1334228515625,0.97808837890625,0.15655517578125,2.0,-1.875,-0.5,-0.1015625,0.24560546875,0.962890625
67,1596992110678377,-0.0313720703125,0.13372802734375,0.97802734375,0.15673828125,0.4375,-1.6875,-1.125,-0.0986328125,0.27001953125,0.94921875
68,1596992110699380,-0.03131103515625,0.1336669921875,0.97796630859375,0.1568603515625,-1.6875,-0.5,-1.0,-0.09765625,0.271484375,0.947265625
69,1596992110715378,-0.03131103515625,0.13360595703125,0.97796630859375,0.1568603515625,0.8125,-0.1875,0.4375,-0.10302734375,0.23193359375,0.9609375
70,1596992110738383,-0.031005859375,0.13433837890625,0.9779052734375,0.156982421875,4.1875,-0.8125,-0.375,-0.10107421875,0.2529296875,0.9580078125
71,1596992110759382,-0.03082275390625,0.134521484375,0.97784423828125,0.15716552734375,0.5625,-1.0,-1.0625,-0.09765625,0.25927734375,0.953125
72,1596992110775378,-0.03082275390625,0.1343994140625,0.97784423828125,0.1573486328125,-1.1875,0.125,-1.125,-0.0966796875,0.2587890625,0.94287109375
73,1596992110797379,-0.03076171875,0.1343994140625,0.97784423828125,0.1573486328125,0.75,0.375,-0.0625,-0.08642578125,0.2451171875,0.96533203125
74,1596992110819378,-0.03076171875,0.1343994140625,0.97784423828125,0.1573486328125,0.5,0.3125,-0.5625,-0.099609375,0.24755859375,0.95458984375
75,1596992110835377,-0.03076171875,0.13433837890625,0.97784423828125,0.1573486328125,0.9375,0.625,-0.8125,-0.09423828125,0.24658203125,0.955078125
76,1596992110858381,-0.03076171875,0.134765625,0.977783203125,0.1573486328125,1.0,0.5,-0.25,-0.099609375,0.2666015625,0.939453125
77,1596992110879381,-0.03076171875,0.134765625,0.977783203125,0.1573486328125,0.0625,0.875,-0.0625,-0.095703125,0.2607421875,0.951171875
78,1596992110895377,-0.03076171875,0.134765625,0.977783203125,0.1573486328125,-0.875,0.875,-0.375,-0.10205078125,0.23876953125,0.9462890625
79,1596992110917381,-0.03070068359375,0.134765625,0.977783203125,0.1573486328125,0.9375,0.5,-0.375,-0.09521484375,0.24755859375,0.94482421875
80,1596992110939378,-0.03070068359375,0.13482666015625,0.977783203125,0.1573486328125,-0.875,0.6875,-0.4375,-0.09912109375,0.271484375,0.9287109375
81,1596992110955387,-0.0308837890625,0.134521484375,0.97784423828125,0.1572265625,-2.0625,0.5625,0.375,-0.10400390625,0.251953125,0.93994140625
82,1596992110978396,-0.0308837890625,0.134521484375,0.97784423828125,0.1572265625,-0.8125,0.0625,0.4375,-0.10546875,0.24462890625,0.95263671875
83,1596992110999390,-0.0308837890625,0.134521484375,0.97784423828125,0.1572265625,0.5,0.3125,0.0625,-0.09912109375,0.24560546875,0.95947265625
84,1596992111015377,-0.031005859375,0.13433837890625,0.97784423828125,0.15728759765625,-1.3125,0.375,-0.625,-0.10205078125,0.25244140625,0.93994140625
85,1596992111037384,-0.031005859375,0.1343994140625,0.97784423828125,0.15728759765625,0.125,0.75,-0.0625,-0.09814453125,0.26416015625,0.939453125
86,1596992111059377,-0.03106689453125,0.13433837890625,0.97784423828125,0.1572265625,-1.25,0.8125,0.3125,-0.09716796875,0.2548828125,0.94140625
87,1596992111075378,-0.03125,0.13397216796875,0.9779052734375,0.15716552734375,-1.625,0.4375,0.3125,-0.1044921875,0.23828125,0.94580078125
88,1596992111098382,-0.03125,0.13397216796875,0.9779052734375,0.15716552734375,0.375,-0.25,0.4375,-0.10400390625,0.24609375,0.94482421875
89,1596992111119387,-0.03125,0.13397216796875,0.9779052734375,0.15716552734375,0.1875,-0.75,0.5,-0.10302734375,0.2568359375,0.939453125
90,1596992111135378,-0.03118896484375,0.13348388671875,0.97796630859375,0.1571044921875,-3.9375,-1.125,0.375,-0.10546875,0.26025390625,0.93896484375
91,1596992111158378,-0.0308837890625,0.13275146484375,0.97808837890625,0.156982421875,-4.5625,-1.375,0.4375,-0.0849609375,0.255859375,0.9443359375
92,1596992111180380,-0.031494140625,0.13104248046875,0.97833251953125,0.1571044921875,-9.375,-2.0,-0.125,-0.15478515625,0.22314453125,0.91943359375
93,1596992111195379,-0.031005859375,0.12994384765625,0.97845458984375,0.15716552734375,-5.5625,-2.75,-0.25,-0.083984375,0.22802734375,0.9345703125
94,1596992111218385,-0.03057861328125,0.12933349609375,0.978515625,0.1572265625,-3.875,-4.1875,0.0,-0.11328125,0.25390625,0.9482421875
95,1596992111240379,-0.02996826171875,0.12847900390625,0.9786376953125,0.15728759765625,-6.25,-4.375,-0.0625,-0.1005859375,0.26171875,0.93798828125
96,1596992111255381,-0.0294189453125,0.12713623046875,0.9788818359375,0.15728759765625,-7.875,-5.125,0.375,-0.10400390625,0.24169921875,0.94287109375
97,1596992111278380,-0.0286865234375,0.12567138671875,0.97906494140625,0.1572265625,-6.4375,-5.5,0.75,-0.09375,0.2138671875,0.9443359375
98,1596992111300377,-0.02789306640625,0.1248779296875,0.97918701171875,0.1573486328125,-3.375,-4.8125,-0.125,-0.087890625,0.22119140625,0.931640625
99,1596992111314379,-0.027099609375,0.12432861328125,0.979248046875,0.15740966796875,-2.5625,-5.125,0.1875,-0.0888671875,0.23046875,0.94970703125
100,1596992111338381,-0.0262451171875,0.1236572265625,0.9793701171875,0.1573486328125,-2.3125,-5.8125,1.0,-0.0966796875,0.22216796875,0.95947265625
