index,timestamp,orientation_x,orientation_y,orientation_z,orientation_w,gyroscope_x,gyroscope_y,gyroscope_z,acceleration_x,acceleration_y,acceleration_z
0,1597652091385941,-0.19525146484375,0.1142578125,-0.5614013671875,0.7960205078125,-5.625,0.6875,-2.375,0.021484375,-0.44384765625,0.91650390625
1,1597652091407751,-0.19586181640625,0.11474609375,-0.5614013671875,0.79583740234375,-4.125,1.25,0.0625,0.05126953125,-0.45703125,0.9189453125
2,1597652091428752,-0.19573974609375,0.11480712890625,-0.56103515625,0.79608154296875,1.5625,-0.4375,2.3125,0.03076171875,-0.46484375,0.9033203125
3,1597652091445754,-0.195068359375,0.11419677734375,-0.5611572265625,0.79620361328125,4.8125,-0.6875,-0.3125,0.0400390625,-0.4384765625,0.91357421875
4,1597652091466749,-0.19500732421875,0.1141357421875,-0.5611572265625,0.7962646484375,-0.0625,0.625,-0.5625,0.029296875,-0.42724609375,0.92333984375
5,1597652091488976,-0.19549560546875,0.11480712890625,-0.56109619140625,0.79608154296875,-4.1875,0.875,-0.125,0.02783203125,-0.46875,0.9375
6,1597652091505749,-0.19580078125,0.11553955078125,-0.5611572265625,0.79583740234375,-3.6875,1.6875,-0.9375,0.02294921875,-0.4501953125,0.90576171875
7,1597652091527471,-0.1964111328125,0.11553955078125,-0.56103515625,0.7957763671875,-1.5,-1.375,0.375,0.04736328125,-0.46142578125,0.88720703125
8,1597652091547858,-0.1964111328125,0.11529541015625,-0.56109619140625,0.79583740234375,1.5,-0.625,-0.125,0.04541015625,-0.45703125,0.90869140625
9,1597652091565745,-0.19635009765625,0.115234375,-0.56109619140625,0.79583740234375,0.9375,0.0625,-0.5625,0.03564453125,-0.42431640625,0.9150390625
10,1597652091587093,-0.196533203125,0.11541748046875,-0.56121826171875,0.795654296875,-2.125,0.1875,-1.25,0.03271484375,-0.44580078125,0.92578125
11,1597652091608760,-0.1968994140625,0.115966796875,-0.56109619140625,0.79559326171875,-3.0,0.375,0.1875,0.02685546875,-0.46533203125,0.91650390625
12,1597652091625749,-0.19696044921875,0.11602783203125,-0.56109619140625,0.79559326171875,0.0,-0.5625,0.1875,0.02587890625,-0.4755859375,0.9150390625
13,1597652091646745,-0.1966552734375,0.11553955078125,-0.56103515625,0.79571533203125,3.375,-1.125,0.5,0.0419921875,-0.45703125,0.9052734375
14,1597652091667755,-0.19610595703125,0.11517333984375,-0.5611572265625,0.79583740234375,2.5,0.5,-0.0625,0.04150390625,-0.423828125,0.900390625
15,1597652091686755,-0.19622802734375,0.11529541015625,-0.56097412109375,0.7958984375,-1.25,-0.125,1.0,0.0341796875,-0.44580078125,0.91796875
16,1597652091708747,-0.19622802734375,0.11529541015625,-0.56097412109375,0.7958984375,-0.6875,-0.1875,-0.0625,0.03173828125,-0.45361328125,0.91650390625
17,1597652091728874,-0.19622802734375,0.1153564453125,-0.56097412109375,0.7958984375,-0.5,0.0625,-0.5625,0.02783203125,-0.45947265625,0.9208984375
18,1597652091746468,-0.19622802734375,0.1153564453125,-0.56097412109375,0.7958984375,0.375,-0.125,0.5625,0.033203125,-0.46337890625,0.90771484375
19,1597652091768659,-0.19580078125,0.11505126953125,-0.56097412109375,0.79608154296875,3.375,0.1875,0.6875,0.04541015625,-0.44970703125,0.904296875
20,1597652091788653,-0.195068359375,0.11474609375,-0.5609130859375,0.79632568359375,3.625,1.1875,1.4375,0.04296875,-0.43212890625,0.91455078125
21,1597652091807670,-0.1947021484375,0.11474609375,-0.56072998046875,0.79656982421875,2.6875,-0.0625,1.25,0.0234375,-0.46337890625,0.91650390625
22,1597652091828761,-0.1947021484375,0.11505126953125,-0.56036376953125,0.7967529296875,-1.0625,0.3125,2.4375,0.0224609375,-0.45458984375,0.93310546875
23,1597652091847800,-0.19403076171875,0.1153564453125,-0.55975341796875,0.79730224609375,2.625,1.8125,4.9375,0.02587890625,-0.47021484375,0.95166015625
24,1597652091866018,-0.1925048828125,0.1156005859375,-0.55859375,0.7984619140625,6.8125,3.4375,10.25,0.0234375,-0.4677734375,0.95556640625
25,1597652091889328,-0.18988037109375,0.1146240234375,-0.557373046875,0.80010986328125,17.4375,-1.3125,10.0625,-0.01123046875,-0.46533203125,0.92724609375
26,1597652091910010,-0.188232421875,0.11322021484375,-0.5565185546875,0.80126953125,13.625,-3.9375,6.625,0.009765625,-0.447265625,0.916015625
27,1597652091931739,-0.18603515625,0.11041259765625,-0.55596923828125,0.80255126953125,19.5625,-7.1875,5.0625,0.0322265625,-0.439453125,0.953125
28,1597652091947956,-0.1832275390625,0.107666015625,-0.5556640625,0.80377197265625,22.0625,-5.3125,3.75,0.021484375,-0.41748046875,0.943359375
29,1597652091968540,-0.181884765625,0.1064453125,-0.554931640625,0.80474853515625,10.5625,-3.6875,5.5,0.0166015625,-0.39599609375,0.880859375
30,1597652091990579,-0.1820068359375,0.10479736328125,-0.55450439453125,0.80523681640625,8.75,-6.0625,2.875,0.07421875,-0.45263671875,0.8720703125
31,1597652092008639,-0.179931640625,0.10321044921875,-0.554443359375,0.80596923828125,15.3125,-0.0625,2.75,0.05126953125,-0.41064453125,0.92724609375
32,1597652092027712,-0.177734375,0.1019287109375,-0.55462646484375,0.8065185546875,12.0,0.75,0.875,0.03076171875,-0.3544921875,0.9189453125
33,1597652092051853,-0.17755126953125,0.10198974609375,-0.554443359375,0.806640625,-0.125,0.8125,1.6875,0.0361328125,-0.3955078125,0.92626953125
34,1597652092068727,-0.17779541015625,0.101806640625,-0.553955078125,0.80694580078125,0.6875,-1.3125,3.0625,0.04541015625,-0.43212890625,0.943359375
35,1597652092087899,-0.17706298828125,0.10137939453125,-0.55377197265625,0.8072509765625,5.8125,0.25,2.0,0.04150390625,-0.41650390625,0.92822265625
36,1597652092110721,-0.17626953125,0.1009521484375,-0.5538330078125,0.80743408203125,4.25,0.8125,0.375,0.0341796875,-0.3837890625,0.927734375
37,1597652092128781,-0.17596435546875,0.10107421875,-0.5540771484375,0.807373046875,-0.3125,1.5,-1.3125,0.02490234375,-0.38671875,0.93603515625
38,1597652092147791,-0.17626953125,0.1015625,-0.5543212890625,0.80706787109375,-4.0,1.3125,-1.625,0.03076171875,-0.39404296875,0.9482421875
39,1597652092170929,-0.1767578125,0.1019287109375,-0.5543212890625,0.806884765625,-2.625,0.5625,-0.5625,0.0341796875,-0.4189453125,0.921875
40,1597652092188932,-0.17681884765625,0.1019287109375,-0.5543212890625,0.806884765625,0.5,-0.125,0.125,0.03369140625,-0.41943359375,0.91845703125
41,1597652092207768,-0.176513671875,0.101806640625,-0.5543212890625,0.80694580078125,2.375,0.0625,-0.0625,0.0283203125,-0.412109375,0.9287109375
42,1597652092231020,-0.17633056640625,0.10162353515625,-0.55438232421875,0.8070068359375,1.25,-0.375,-0.1875,0.02978515625,-0.40478515625,0.9384765625
43,1597652092249081,-0.17626953125,0.10162353515625,-0.55438232421875,0.8070068359375,-0.0625,-0.125,-0.75,0.0322265625,-0.3837890625,0.9462890625
44,1597652092270775,-0.17626953125,0.10162353515625,-0.55438232421875,0.8070068359375,0.0625,0.9375,-0.1875,0.02294921875,-0.4130859375,0.94580078125
45,1597652092291059,-0.176513671875,0.102294921875,-0.5540771484375,0.80706787109375,-1.125,0.125,1.25,0.00390625,-0.4404296875,0.93017578125
46,1597652092309791,-0.17626953125,0.1021728515625,-0.55389404296875,0.8072509765625,3.4375,-0.3125,1.3125,0.0234375,-0.4326171875,0.9296875
47,1597652092335822,-0.17547607421875,0.10174560546875,-0.5538330078125,0.80755615234375,5.625,-0.5,0.9375,0.0224609375,-0.412109375,0.943359375
48,1597652092350685,-0.17449951171875,0.1011962890625,-0.5537109375,0.80792236328125,5.9375,-0.6875,1.4375,0.0166015625,-0.40234375,0.95166015625
49,1597652092368677,-0.173828125,0.1007080078125,-0.5537109375,0.80810546875,4.6875,-0.3125,0.3125,0.0283203125,-0.39501953125,0.9345703125
50,1597652092389680,-0.1734619140625,0.10052490234375,-0.55364990234375,0.8082275390625,3.0,-0.1875,0.375,0.0234375,-0.4072265625,0.93603515625
51,1597652092410679,-0.17279052734375,0.099853515625,-0.5538330078125,0.808349609375,4.6875,-0.25,-0.125,0.04150390625,-0.38330078125,0.9287109375
52,1597652092428325,-0.1722412109375,0.09942626953125,-0.55389404296875,0.8084716796875,2.125,0.625,0.3125,0.04345703125,-0.36865234375,0.93359375
53,1597652092449316,-0.1722412109375,0.09942626953125,-0.55389404296875,0.8084716796875,0.8125,0.875,-0.375,0.0341796875,-0.388671875,0.9345703125
54,1597652092471132,-0.1719970703125,0.09918212890625,-0.553955078125,0.80853271484375,1.6875,-0.375,-0.25,0.02685546875,-0.39013671875,0.9365234375
55,1597652092488325,-0.17205810546875,0.09906005859375,-0.55389404296875,0.80853271484375,1.125,-0.875,-0.125,0.03076171875,-0.41162109375,0.9306640625
56,1597652092513927,-0.17169189453125,0.09869384765625,-0.5538330078125,0.8087158203125,3.875,-1.0625,0.75,0.0234375,-0.400390625,0.92919921875
57,1597652092531119,-0.17095947265625,0.09820556640625,-0.55377197265625,0.8089599609375,4.6875,-0.5,0.625,0.025390625,-0.3896484375,0.94189453125
58,1597652092549117,-0.1705322265625,0.09796142578125,-0.55389404296875,0.80902099609375,1.0625,0.0,-0.5625,0.02685546875,-0.365234375,0.93798828125
59,1597652092577349,-0.1708984375,0.09796142578125,-0.553955078125,0.80889892578125,-1.8125,-0.375,-0.5,0.041015625,-0.390625,0.93017578125
60,1597652092591328,-0.17083740234375,0.09765625,-0.5540771484375,0.80889892578125,1.6875,-0.1875,-0.375,0.0458984375,-0.392578125,0.92919921875
61,1597652092609207,-0.17034912109375,0.09722900390625,-0.5540771484375,0.80902099609375,3.3125,-0.375,0.25,0.03515625,-0.38671875,0.94287109375
62,1597652092631386,-0.16986083984375,0.09710693359375,-0.553955078125,0.8092041015625,3.5625,-0.5,0.6875,0.01171875,-0.39990234375,0.94775390625
63,1597652092650387,-0.169677734375,0.09698486328125,-0.553955078125,0.80926513671875,1.4375,-0.8125,-0.125,0.02197265625,-0.3955078125,0.93896484375
64,1597652092668642,-0.169677734375,0.09698486328125,-0.553955078125,0.80926513671875,0.1875,0.5,-0.1875,0.03076171875,-0.384765625,0.93310546875
65,1597652092691460,-0.169677734375,0.096923828125,-0.553955078125,0.80926513671875,-1.0,0.1875,-0.75,0.03369140625,-0.3818359375,0.939453125
66,1597652092710409,-0.16925048828125,0.09661865234375,-0.5540771484375,0.809326171875,2.5,0.5,-0.25,0.0390625,-0.3798828125,0.9443359375
67,1597652092729630,-0.16925048828125,0.09661865234375,-0.5540771484375,0.809326171875,0.9375,0.75,0.375,0.025390625,-0.38720703125,0.94482421875
68,1597652092751402,-0.16949462890625,0.09716796875,-0.553955078125,0.80926513671875,-1.4375,0.75,0.25,0.017578125,-0.40771484375,0.931640625
69,1597652092770399,-0.16925048828125,0.09716796875,-0.55401611328125,0.809326171875,1.1875,0.3125,-0.125,0.02197265625,-0.39453125,0.94921875
70,1597652092788411,-0.169189453125,0.09710693359375,-0.55401611328125,0.809326171875,0.75,-0.0625,-0.9375,0.03857421875,-0.3642578125,0.931640625
71,1597652092811800,-0.169189453125,0.09710693359375,-0.55426025390625,0.80914306640625,-1.25,1.0625,-1.1875,0.0439453125,-0.36474609375,0.93603515625
72,1597652092830637,-0.16925048828125,0.0975341796875,-0.55413818359375,0.80914306640625,-1.625,1.25,0.5,0.02197265625,-0.3896484375,0.9287109375
73,1597652092848991,-0.1689453125,0.09783935546875,-0.5540771484375,0.80926513671875,1.125,1.1875,0.6875,0.015625,-0.40234375,0.94970703125
74,1597652092871640,-0.1689453125,0.09783935546875,-0.5540771484375,0.80926513671875,-0.5625,0.625,-0.875,0.0166015625,-0.3994140625,0.9453125
75,1597652092890637,-0.16943359375,0.0982666015625,-0.55413818359375,0.80902099609375,-3.3125,0.1875,-1.1875,0.0224609375,-0.39599609375,0.94140625
76,1597652092908882,-0.169189453125,0.097900390625,-0.5543212890625,0.80902099609375,1.75,-0.25,-0.5,0.0390625,-0.37939453125,0.939453125
77,1597652092931426,-0.168701171875,0.09759521484375,-0.554443359375,0.80908203125,2.25,0.875,-0.125,0.03857421875,-0.36865234375,0.93310546875
78,1597652092952434,-0.1690673828125,0.09808349609375,-0.554443359375,0.8089599609375,-3.4375,0.75,-0.5,0.02197265625,-0.39111328125,0.9384765625
79,1597652092968425,-0.16949462890625,0.0987548828125,-0.55438232421875,0.808837890625,-2.375,0.625,-0.1875,0.01318359375,-0.421875,0.94287109375
80,1597652092991613,-0.16949462890625,0.0987548828125,-0.55438232421875,0.808837890625,0.5,0.375,-0.6875,0.0205078125,-0.3896484375,0.93212890625
81,1597652093010426,-0.16949462890625,0.0987548828125,-0.55438232421875,0.808837890625,-0.625,-0.1875,-0.125,0.03125,-0.3828125,0.935546875
82,1597652093028440,-0.16949462890625,0.09869384765625,-0.55438232421875,0.808837890625,0.875,-0.4375,0.125,0.0302734375,-0.3857421875,0.9384765625
83,1597652093051432,-0.16943359375,0.0987548828125,-0.55438232421875,0.808837890625,0.375,-0.25,-0.4375,0.02392578125,-0.39306640625,0.953125
84,1597652093070576,-0.16961669921875,0.0987548828125,-0.55450439453125,0.80865478515625,-1.25,-0.125,-1.25,0.0263671875,-0.38330078125,0.93359375
85,1597652093088425,-0.16998291015625,0.09918212890625,-0.55462646484375,0.8084716796875,-3.25,1.125,-1.0,0.02978515625,-0.38818359375,0.931640625
86,1597652093111430,-0.16998291015625,0.0992431640625,-0.55462646484375,0.8084716796875,-0.875,0.8125,-0.5625,0.0263671875,-0.40185546875,0.94677734375
87,1597652093130878,-0.169677734375,0.0992431640625,-0.5545654296875,0.80853271484375,1.625,-0.1875,0.125,0.009765625,-0.40283203125,0.9462890625
88,1597652093149876,-0.16973876953125,0.09930419921875,-0.5545654296875,0.80853271484375,0.875,-0.75,-0.3125,0.0244140625,-0.39892578125,0.94140625
89,1597652093170978,-0.1697998046875,0.09930419921875,-0.55474853515625,0.80841064453125,-1.4375,-0.25,-1.25,0.02294921875,-0.38232421875,0.94287109375
90,1597652093190860,-0.16986083984375,0.09930419921875,-0.55474853515625,0.80841064453125,-1.0,-0.5625,-0.4375,0.03369140625,-0.39453125,0.94091796875
91,1597652093210050,-0.16949462890625,0.0989990234375,-0.5546875,0.80853271484375,2.5,-0.625,0.4375,0.025390625,-0.38818359375,0.9384765625
92,1597652093231627,-0.1693115234375,0.098876953125,-0.55462646484375,0.8087158203125,1.5,-1.0625,0.5,0.0185546875,-0.3916015625,0.9365234375
93,1597652093252634,-0.1693115234375,0.098876953125,-0.5545654296875,0.8087158203125,-0.1875,-0.875,-0.3125,0.0185546875,-0.38720703125,0.9482421875
94,1597652093268835,-0.16925048828125,0.09881591796875,-0.55462646484375,0.8087158203125,-0.0625,-0.3125,-0.5,0.0244140625,-0.3759765625,0.939453125
95,1597652093290630,-0.16925048828125,0.09881591796875,-0.55462646484375,0.8087158203125,-0.25,-0.75,-0.125,0.03173828125,-0.38134765625,0.9345703125
96,1597652093312637,-0.16925048828125,0.09881591796875,-0.55462646484375,0.8087158203125,0.3125,-0.5,0.125,0.04248046875,-0.38623046875,0.92529296875
97,1597652093328859,-0.16943359375,0.09881591796875,-0.55462646484375,0.80865478515625,-1.5,0.5,0.0625,0.04345703125,-0.38134765625,0.9345703125
98,1597652093350727,-0.16973876953125,0.09893798828125,-0.5548095703125,0.8084716796875,-2.5625,0.125,-1.4375,0.03125,-0.380859375,0.94384765625
99,1597652093371734,-0.1705322265625,0.0992431640625,-0.5550537109375,0.80810546875,-6.875,0.25,-1.9375,0.04345703125,-0.36279296875,0.931640625
100,1597652093388965,-0.17266845703125,0.099853515625,-0.55535888671875,0.80731201171875,-12.9375,-1.5625,-4.0,0.05224609375,-0.3720703125,0.9013671875
101,1597652093411730,-0.17486572265625,0.10009765625,-0.5560302734375,0.80633544921875,-13.1875,-3.25,-6.4375,0.056640625,-0.35986328125,0.90283203125
