index,timestamp,orientation_x,orientation_y,orientation_z,orientation_w,gyroscope_x,gyroscope_y,gyroscope_z,acceleration_x,acceleration_y,acceleration_z
0,1597981516543161,-0.48626708984375,0.30279541015625,-0.679931640625,0.457763671875,-22.125,10.375,-12.1875,0.37109375,-0.96923828125,0.41845703125
1,1597981516564156,-0.48480224609375,0.30419921875,-0.68145751953125,0.4561767578125,-5.3125,13.25,-9.375,0.3251953125,-0.935546875,0.40771484375
2,1597981516581156,-0.48248291015625,0.3050537109375,-0.68292236328125,0.45587158203125,2.5625,12.9375,-3.75,0.32177734375,-0.91015625,0.39697265625
3,1597981516603158,-0.4805908203125,0.3052978515625,-0.68402099609375,0.45599365234375,5.625,8.75,-2.8125,0.314453125,-0.87353515625,0.37158203125
4,1597981516624165,-0.4791259765625,0.30450439453125,-0.68511962890625,0.45648193359375,9.0,4.3125,-3.4375,0.3408203125,-0.87353515625,0.3798828125
5,1597981516641454,-0.47833251953125,0.30340576171875,-0.6859130859375,0.456787109375,7.125,1.0,-3.4375,0.37109375,-0.87060546875,0.38671875
6,1597981516663476,-0.4779052734375,0.30218505859375,-0.68658447265625,0.45703125,9.3125,0.75,-2.9375,0.3916015625,-0.8662109375,0.34130859375
7,1597981516684471,-0.47711181640625,0.299560546875,-0.68743896484375,0.45831298828125,18.75,-2.6875,-1.9375,0.40234375,-0.85888671875,0.345703125
8,1597981516701467,-0.47674560546875,0.29705810546875,-0.6878662109375,0.45965576171875,16.0,-5.375,-0.6875,0.41064453125,-0.85498046875,0.35791015625
9,1597981516723470,-0.47760009765625,0.2952880859375,-0.6875,0.46051025390625,7.125,-9.1875,0.1875,0.41259765625,-0.82763671875,0.34912109375
10,1597981516746467,-0.47906494140625,0.2940673828125,-0.68658447265625,0.46124267578125,2.375,-11.3125,1.5,0.42431640625,-0.857421875,0.35498046875
11,1597981516767476,-0.48028564453125,0.2926025390625,-0.68560791015625,0.4622802734375,4.8125,-11.875,2.1875,0.423828125,-0.86962890625,0.359375
12,1597981516783555,-0.48126220703125,0.2906494140625,-0.68511962890625,0.46319580078125,7.6875,-11.1875,-1.125,0.4169921875,-0.86279296875,0.3623046875
13,1597981516806553,-0.4814453125,0.2884521484375,-0.6851806640625,0.4642333984375,11.0,-7.8125,-1.6875,0.41357421875,-0.86328125,0.37548828125
14,1597981516820561,-0.4810791015625,0.28607177734375,-0.68560791015625,0.46551513671875,13.4375,-5.875,-1.3125,0.4072265625,-0.83984375,0.39501953125
15,1597981516843555,-0.48052978515625,0.28424072265625,-0.68603515625,0.46661376953125,10.125,-4.1875,0.0,0.4033203125,-0.82470703125,0.40673828125
16,1597981516865561,-0.4803466796875,0.28326416015625,-0.68609619140625,0.46722412109375,3.5625,-3.375,0.4375,0.39697265625,-0.8193359375,0.41064453125
17,1597981516880556,-0.480712890625,0.2833251953125,-0.68585205078125,0.46722412109375,-3.4375,-2.625,0.9375,0.40185546875,-0.83203125,0.40576171875
18,1597981516903555,-0.48126220703125,0.2838134765625,-0.68548583984375,0.4669189453125,-5.875,-1.8125,0.25,0.39990234375,-0.845703125,0.39111328125
19,1597981516926554,-0.48162841796875,0.28424072265625,-0.68524169921875,0.46661376953125,-4.25,-0.5,0.25,0.40380859375,-0.85205078125,0.38720703125
20,1597981516940553,-0.481689453125,0.28466796875,-0.68511962890625,0.4664306640625,-3.1875,0.5,0.625,0.39990234375,-0.85009765625,0.3916015625
21,1597981516963553,-0.4818115234375,0.2852783203125,-0.68499755859375,0.46612548828125,-4.125,0.9375,0.8125,0.39990234375,-0.84912109375,0.3818359375
22,1597981516985561,-0.48211669921875,0.28607177734375,-0.6846923828125,0.4658203125,-5.375,0.8125,1.375,0.4013671875,-0.86181640625,0.3779296875
23,1597981517000552,-0.4830322265625,0.287353515625,-0.6839599609375,0.46514892578125,-10.0,-1.0625,0.6875,0.40478515625,-0.88037109375,0.37255859375
24,1597981517023555,-0.48345947265625,0.28759765625,-0.68365478515625,0.46502685546875,-2.25,-1.1875,0.625,0.4033203125,-0.85400390625,0.36181640625
25,1597981517045561,-0.48321533203125,0.287841796875,-0.6832275390625,0.4656982421875,1.25,-0.125,5.625,0.42138671875,-0.875,0.375
26,1597981517060553,-0.483642578125,0.28985595703125,-0.681640625,0.46636962890625,-7.5,-2.25,9.1875,0.39892578125,-0.97021484375,0.37939453125
27,1597981517083552,-0.48712158203125,0.293212890625,-0.67852783203125,0.465087890625,-23.875,-7.0,8.0,0.43994140625,-0.91748046875,0.25732421875
28,1597981517105563,-0.48675537109375,0.29296875,-0.6776123046875,0.467041015625,8.0,-2.875,12.875,0.47216796875,-0.9296875,0.3525390625
29,1597981517127555,-0.48248291015625,0.28900146484375,-0.67974853515625,0.4708251953125,31.25,3.8125,11.0625,0.4873046875,-0.85986328125,0.5302734375
30,1597981517143556,-0.47747802734375,0.2874755859375,-0.67901611328125,0.477783203125,41.4375,-1.5625,21.875,0.287109375,-1.07568359375,0.416015625
31,1597981517166556,-0.476318359375,0.29046630859375,-0.67498779296875,0.48291015625,6.6875,-6.4375,33.9375,0.24853515625,-0.86181640625,0.25
32,1597981517187559,-0.46685791015625,0.2845458984375,-0.67803955078125,0.4913330078125,66.5,8.875,21.6875,0.2509765625,-0.68115234375,0.50439453125
33,1597981517203555,-0.46844482421875,0.29107666015625,-0.6746826171875,0.49053955078125,-40.5,5.6875,25.875,0.36474609375,-0.70556640625,0.37060546875
34,1597981517226554,-0.4676513671875,0.29766845703125,-0.6729736328125,0.48968505859375,-28.6875,13.4375,10.125,0.16650390625,-0.8701171875,0.3984375
35,1597981517247552,-0.46484375,0.29736328125,-0.67340087890625,0.491943359375,14.625,2.875,3.25,0.197265625,-0.85791015625,0.40673828125
36,1597981517263553,-0.462890625,0.293212890625,-0.67529296875,0.49371337890625,23.75,-2.625,-2.75,0.375,-0.7939453125,0.470703125
37,1597981517285561,-0.4620361328125,0.2891845703125,-0.6773681640625,0.49407958984375,16.125,-4.4375,-10.8125,0.328125,-0.69873046875,0.435546875
38,1597981517307552,-0.46453857421875,0.2872314453125,-0.6771240234375,0.4931640625,-7.4375,-13.75,-6.375,0.39892578125,-0.751953125,0.44189453125
39,1597981517323555,-0.469970703125,0.28790283203125,-0.67529296875,0.49017333984375,-27.1875,-15.125,-6.375,0.47119140625,-0.84130859375,0.36181640625
40,1597981517345562,-0.4735107421875,0.2879638671875,-0.6732177734375,0.48956298828125,-13.125,-15.9375,-0.1875,0.44189453125,-0.96826171875,0.4013671875
41,1597981517367554,-0.47503662109375,0.28607177734375,-0.672607421875,0.489990234375,4.1875,-12.0625,-1.125,0.43408203125,-0.91455078125,0.396484375
42,1597981517383555,-0.4759521484375,0.284423828125,-0.67291259765625,0.48968505859375,2.6875,-5.0,-3.5,0.423828125,-0.81689453125,0.3798828125
43,1597981517405561,-0.4783935546875,0.28521728515625,-0.6719970703125,0.4881591796875,-12.6875,-5.3125,-4.0625,0.3759765625,-0.83642578125,0.32470703125
44,1597981517427558,-0.481201171875,0.286376953125,-0.6707763671875,0.486328125,-14.875,-5.4375,-3.625,0.4267578125,-0.93505859375,0.33154296875
45,1597981517443555,-0.481689453125,0.2857666015625,-0.67095947265625,0.4859619140625,2.25,-0.875,-2.5,0.42724609375,-0.91552734375,0.369140625
46,1597981517466553,-0.4813232421875,0.2847900390625,-0.67138671875,0.486328125,7.6875,0.3125,-0.8125,0.3916015625,-0.86669921875,0.3583984375
47,1597981517487558,-0.48046875,0.28472900390625,-0.67205810546875,0.48626708984375,3.125,5.25,0.4375,0.38525390625,-0.82958984375,0.37548828125
48,1597981517503555,-0.48101806640625,0.28662109375,-0.67156982421875,0.4853515625,-10.75,3.5625,0.9375,0.34912109375,-0.85498046875,0.349609375
49,1597981517525561,-0.48077392578125,0.28778076171875,-0.671630859375,0.4847412109375,-4.875,4.6875,-0.75,0.34765625,-0.876953125,0.37744140625
50,1597981517547552,-0.48028564453125,0.28802490234375,-0.67205810546875,0.48443603515625,-1.5,2.8125,-2.4375,0.3427734375,-0.861328125,0.40283203125
51,1597981517563556,-0.48016357421875,0.28814697265625,-0.67266845703125,0.48370361328125,-2.125,2.8125,-5.0,0.34716796875,-0.84130859375,0.3828125
52,1597981517585562,-0.48095703125,0.288330078125,-0.6728515625,0.48260498046875,-7.6875,-1.4375,-6.25,0.35107421875,-0.841796875,0.39892578125
53,1597981517606555,-0.48211669921875,0.28857421875,-0.6727294921875,0.4814453125,-7.5625,-2.25,-5.1875,0.38525390625,-0.876953125,0.37841796875
54,1597981517623556,-0.48260498046875,0.28851318359375,-0.67254638671875,0.48126220703125,-2.0,-2.4375,-1.875,0.3779296875,-0.88916015625,0.38525390625
55,1597981517647552,-0.4825439453125,0.2884521484375,-0.672607421875,0.48126220703125,0.125,-0.375,-0.6875,0.37353515625,-0.8720703125,0.40185546875
56,1597981517668555,-0.482666015625,0.28887939453125,-0.67230224609375,0.48126220703125,-3.1875,-0.875,0.5625,0.35693359375,-0.8681640625,0.38623046875
57,1597981517683555,-0.4827880859375,0.28961181640625,-0.67205810546875,0.4810791015625,-4.375,0.625,0.9375,0.3671875,-0.87255859375,0.37451171875
58,1597981517705561,-0.48248291015625,0.29022216796875,-0.6719970703125,0.4810791015625,-1.3125,2.25,1.375,0.369140625,-0.89599609375,0.38330078125
59,1597981517728556,-0.481689453125,0.29046630859375,-0.67218017578125,0.4814453125,2.0,3.25,2.0625,0.36328125,-0.87646484375,0.37890625
60,1597981517749561,-0.48089599609375,0.2906494140625,-0.67242431640625,0.48175048828125,1.9375,3.125,2.0,0.36279296875,-0.86181640625,0.38623046875
61,1597981517766554,-0.480712890625,0.2911376953125,-0.67230224609375,0.48187255859375,-1.1875,1.75,2.5625,0.37548828125,-0.869140625,0.373046875
62,1597981517788553,-0.48046875,0.2918701171875,-0.67205810546875,0.48199462890625,-2.75,1.4375,3.4375,0.36279296875,-0.85791015625,0.38037109375
63,1597981517802557,-0.48040771484375,0.2926025390625,-0.67169189453125,0.4820556640625,-3.5,0.9375,3.1875,0.3642578125,-0.86572265625,0.37353515625
64,1597981517826555,-0.48028564453125,0.29290771484375,-0.671630859375,0.48211669921875,-1.375,0.9375,1.5,0.36865234375,-0.85986328125,0.37744140625
65,1597981517848554,-0.47998046875,0.29290771484375,-0.671875,0.4820556640625,0.125,1.8125,0.625,0.37548828125,-0.8525390625,0.38232421875
66,1597981517862638,-0.48016357421875,0.29327392578125,-0.67181396484375,0.48175048828125,-3.1875,1.0,0.4375,0.37451171875,-0.85791015625,0.3720703125
67,1597981517885642,-0.480224609375,0.29351806640625,-0.6717529296875,0.48162841796875,-2.3125,0.25,0.8125,0.37353515625,-0.865234375,0.38037109375
68,1597981517908645,-0.480224609375,0.2935791015625,-0.671875,0.4814453125,-1.1875,0.8125,-0.5,0.373046875,-0.85888671875,0.376953125
69,1597981517922642,-0.48028564453125,0.293701171875,-0.67193603515625,0.481201171875,-1.625,0.5,-0.375,0.37060546875,-0.869140625,0.375
70,1597981517945638,-0.48052978515625,0.2938232421875,-0.67181396484375,0.4810791015625,-2.125,-0.75,0.125,0.373046875,-0.86181640625,0.37890625
71,1597981517968638,-0.48077392578125,0.29400634765625,-0.6715087890625,0.48114013671875,-1.8125,-1.5625,0.6875,0.36279296875,-0.87548828125,0.36767578125
72,1597981517983335,-0.48095703125,0.2939453125,-0.67132568359375,0.4813232421875,0.0,-1.75,0.25,0.357421875,-0.869140625,0.36767578125
73,1597981518006364,-0.48095703125,0.2939453125,-0.6712646484375,0.4813232421875,0.0,-0.9375,-0.4375,0.3701171875,-0.8740234375,0.36328125
74,1597981518028352,-0.48095703125,0.29400634765625,-0.6712646484375,0.4813232421875,-0.8125,0.9375,-0.1875,0.36767578125,-0.8759765625,0.36767578125
75,1597981518043354,-0.48095703125,0.29400634765625,-0.6712646484375,0.4813232421875,0.625,0.4375,-0.1875,0.3564453125,-0.87255859375,0.3720703125
76,1597981518066357,-0.4805908203125,0.2939453125,-0.67144775390625,0.4814453125,1.125,1.25,0.25,0.36376953125,-0.86572265625,0.37646484375
77,1597981518088437,-0.48052978515625,0.29443359375,-0.67138671875,0.4813232421875,-2.1875,1.25,0.5,0.35693359375,-0.86962890625,0.3740234375
78,1597981518102437,-0.4803466796875,0.29461669921875,-0.67138671875,0.48138427734375,-0.625,0.6875,1.0625,0.369140625,-0.884765625,0.380859375
79,1597981518126449,-0.47967529296875,0.29437255859375,-0.671630859375,0.48187255859375,3.625,1.3125,1.0625,0.361328125,-0.87646484375,0.38623046875
80,1597981518148438,-0.479248046875,0.29425048828125,-0.67169189453125,0.48223876953125,2.4375,0.5,1.0,0.35107421875,-0.86279296875,0.37646484375
81,1597981518162437,-0.47906494140625,0.29412841796875,-0.6717529296875,0.482421875,1.375,0.0,0.5625,0.36328125,-0.859375,0.37255859375
82,1597981518186438,-0.47918701171875,0.294189453125,-0.6717529296875,0.4822998046875,-1.3125,0.0,0.25,0.3720703125,-0.85986328125,0.37451171875
83,1597981518208438,-0.47918701171875,0.2943115234375,-0.6717529296875,0.48223876953125,-1.4375,0.5625,0.5,0.3740234375,-0.87060546875,0.38330078125
84,1597981518229527,-0.47900390625,0.29449462890625,-0.671875,0.48211669921875,-0.9375,1.3125,-0.125,0.36328125,-0.8701171875,0.38037109375
85,1597981518245602,-0.47900390625,0.29449462890625,-0.671875,0.48211669921875,0.125,0.0,-0.3125,0.36328125,-0.8642578125,0.37255859375
86,1597981518268594,-0.47918701171875,0.29461669921875,-0.671875,0.48187255859375,-2.25,0.125,-0.1875,0.37744140625,-0.8720703125,0.3837890625
87,1597981518289694,-0.4791259765625,0.29461669921875,-0.67193603515625,0.48187255859375,0.9375,0.125,0.3125,0.36669921875,-0.8720703125,0.38525390625
88,1597981518305696,-0.4791259765625,0.29437255859375,-0.67193603515625,0.48199462890625,1.375,-0.625,0.375,0.37353515625,-0.87060546875,0.37255859375
89,1597981518328692,-0.47930908203125,0.29443359375,-0.67181396484375,0.48193359375,-1.625,-0.75,0.4375,0.36669921875,-0.85986328125,0.373046875
90,1597981518349681,-0.47943115234375,0.2947998046875,-0.6717529296875,0.481689453125,-2.875,0.75,-0.1875,0.3681640625,-0.88037109375,0.384765625
91,1597981518365770,-0.4791259765625,0.294677734375,-0.6719970703125,0.481689453125,1.0,1.1875,-0.4375,0.365234375,-0.8701171875,0.3837890625
92,1597981518388769,-0.47906494140625,0.294677734375,-0.67205810546875,0.48175048828125,-0.75,0.8125,0.0625,0.35986328125,-0.85888671875,0.37890625
93,1597981518409778,-0.479248046875,0.29486083984375,-0.67205810546875,0.48138427734375,-2.4375,0.5625,-0.375,0.37158203125,-0.8671875,0.373046875
94,1597981518425770,-0.4793701171875,0.29522705078125,-0.6719970703125,0.48114013671875,-2.6875,1.25,0.4375,0.376953125,-0.875,0.37646484375
95,1597981518448777,-0.47906494140625,0.2955322265625,-0.67193603515625,0.48126220703125,-0.625,0.9375,1.4375,0.3544921875,-0.86669921875,0.37744140625
96,1597981518469777,-0.478759765625,0.2957763671875,-0.6719970703125,0.48138427734375,0.375,1.6875,1.25,0.357421875,-0.86279296875,0.37060546875
97,1597981518485770,-0.4783935546875,0.29595947265625,-0.67218017578125,0.48138427734375,-0.1875,2.0625,0.625,0.35595703125,-0.85888671875,0.37890625
98,1597981518508769,-0.478271484375,0.29638671875,-0.6722412109375,0.481201171875,-2.4375,1.8125,-0.0625,0.35546875,-0.8671875,0.380859375
99,1597981518529775,-0.4783935546875,0.29656982421875,-0.672119140625,0.4810791015625,-1.875,-0.5,0.0,0.35888671875,-0.87109375,0.37744140625
100,1597981518545855,-0.47869873046875,0.2965087890625,-0.67205810546875,0.48095703125,-0.75,-1.0625,-0.4375,0.37353515625,-0.880859375,0.3681640625
