index,timestamp,orientation_x,orientation_y,orientation_z,orientation_w,gyroscope_x,gyroscope_y,gyroscope_z,acceleration_x,acceleration_y,acceleration_z
0,1597839922617879,0.0933837890625,-0.3192138671875,0.82122802734375,-0.463623046875,1.6875,2.375,-0.625,-0.1708984375,-0.64208984375,0.77099609375
1,1597839922632009,0.0931396484375,-0.31976318359375,0.82122802734375,-0.46331787109375,0.0625,1.625,-1.125,-0.1669921875,-0.6494140625,0.77392578125
2,1597839922655163,0.093017578125,-0.320068359375,0.82122802734375,-0.46319580078125,1.25,0.9375,-0.6875,-0.1611328125,-0.654296875,0.77490234375
3,1597839922678177,0.0928955078125,-0.3203125,0.82110595703125,-0.463134765625,1.3125,0.375,0.125,-0.1552734375,-0.65087890625,0.7666015625
4,1597839922692181,0.09295654296875,-0.3204345703125,0.82110595703125,-0.463134765625,0.6875,0.0625,0.8125,-0.14892578125,-0.64599609375,0.7626953125
5,1597839922715163,0.09295654296875,-0.321044921875,0.82080078125,-0.46319580078125,-1.5,0.4375,1.25,-0.1572265625,-0.64306640625,0.7666015625
6,1597839922738176,0.0931396484375,-0.32196044921875,0.82037353515625,-0.4632568359375,-3.1875,0.25,1.4375,-0.1591796875,-0.6533203125,0.771484375
7,1597839922759344,0.09320068359375,-0.32244873046875,0.820068359375,-0.4635009765625,-1.5625,-0.25,1.625,-0.162109375,-0.64990234375,0.77880859375
8,1597839922775171,0.09320068359375,-0.3226318359375,0.81982421875,-0.46380615234375,-0.8125,-0.9375,1.8125,-0.16357421875,-0.63427734375,0.7919921875
9,1597839922798185,0.09320068359375,-0.3228759765625,0.8194580078125,-0.4642333984375,-1.6875,-1.375,2.0625,-0.171875,-0.6279296875,0.79296875
10,1597839922819423,0.0933837890625,-0.32318115234375,0.819091796875,-0.46466064453125,-2.625,-2.0,2.0625,-0.16943359375,-0.6396484375,0.80322265625
11,1597839922835200,0.09368896484375,-0.3233642578125,0.81866455078125,-0.46514892578125,-1.9375,-2.9375,2.4375,-0.16455078125,-0.64013671875,0.796875
12,1597839922857338,0.0941162109375,-0.3232421875,0.818359375,-0.46575927734375,-0.8125,-3.5625,2.5625,-0.1552734375,-0.640625,0.80712890625
13,1597839922879338,0.094482421875,-0.32293701171875,0.818115234375,-0.46630859375,-0.5625,-3.5,2.375,-0.1484375,-0.6337890625,0.80615234375
14,1597839922895574,0.0948486328125,-0.32293701171875,0.8177490234375,-0.46685791015625,-1.375,-3.0625,2.8125,-0.15185546875,-0.63330078125,0.7978515625
15,1597839922917492,0.09503173828125,-0.3226318359375,0.8175048828125,-0.46746826171875,0.1875,-2.4375,3.375,-0.14697265625,-0.642578125,0.81689453125
16,1597839922938326,0.09466552734375,-0.32208251953125,0.81732177734375,-0.46826171875,2.0625,-1.125,4.3125,-0.15966796875,-0.6435546875,0.84423828125
17,1597839922955325,0.09259033203125,-0.32147216796875,0.81683349609375,-0.46990966796875,11.375,3.125,11.9375,-0.18701171875,-0.71240234375,0.8330078125
18,1597839922977976,0.09283447265625,-0.3236083984375,0.81396484375,-0.47332763671875,-7.4375,-3.25,25.75,-0.14990234375,-0.7099609375,0.7392578125
19,1597839922998973,0.0933837890625,-0.3221435546875,0.81146240234375,-0.478515625,-1.0625,-16.125,29.3125,-0.13525390625,-0.54638671875,0.79345703125
20,1597839923014977,0.093017578125,-0.3226318359375,0.8101806640625,-0.48052978515625,-4.3125,1.0,15.25,-0.130859375,-0.62548828125,0.83203125
21,1597839923038069,0.09112548828125,-0.32421875,0.8096923828125,-0.48052978515625,-8.9375,13.375,4.8125,-0.17822265625,-0.60107421875,0.8916015625
22,1597839923058602,0.08782958984375,-0.32403564453125,0.80975341796875,-0.481201171875,1.125,10.1875,4.375,-0.26220703125,-0.56298828125,0.92529296875
23,1597839923074680,0.08746337890625,-0.32452392578125,0.8077392578125,-0.484375,1.4375,-9.0625,18.1875,-0.27197265625,-0.70166015625,0.78173828125
24,1597839923097959,0.0882568359375,-0.32232666015625,0.80517578125,-0.4898681640625,7.8125,-22.25,29.3125,-0.19873046875,-0.65087890625,0.78955078125
25,1597839923118604,0.0872802734375,-0.3177490234375,0.80596923828125,-0.49176025390625,26.1875,-7.75,9.1875,-0.0966796875,-0.58837890625,0.771484375
26,1597839923141602,0.08599853515625,-0.31549072265625,0.80755615234375,-0.49090576171875,15.0625,3.8125,-6.1875,-0.1318359375,-0.56005859375,0.77392578125
27,1597839923157607,0.0841064453125,-0.31378173828125,0.80926513671875,-0.489501953125,6.6875,9.5,-8.9375,-0.1474609375,-0.48095703125,0.85595703125
28,1597839923180605,0.0821533203125,-0.31793212890625,0.8074951171875,-0.49005126953125,-15.8125,11.625,7.6875,-0.3115234375,-0.61767578125,0.791015625
29,1597839923194609,0.08331298828125,-0.32470703125,0.8033447265625,-0.4921875,-27.375,3.875,22.8125,-0.2431640625,-0.8037109375,0.7119140625
30,1597839923217696,0.08111572265625,-0.32061767578125,0.80584716796875,-0.49114990234375,36.25,9.4375,-2.3125,-0.05908203125,-0.765625,0.8369140625
31,1597839923240733,0.0743408203125,-0.3162841796875,0.80908203125,-0.48968505859375,38.0625,22.0,-8.0625,-0.23046875,-0.52001953125,0.8466796875
32,1597839923254808,0.06756591796875,-0.3111572265625,0.81243896484375,-0.48834228515625,40.5625,19.375,-8.125,-0.19970703125,-0.38916015625,0.73095703125
33,1597839923277734,0.06781005859375,-0.31597900390625,0.8106689453125,-0.48822021484375,-30.125,12.5625,5.125,-0.1953125,-0.52392578125,0.8134765625
34,1597839923299849,0.06878662109375,-0.31951904296875,0.8096923828125,-0.48736572265625,-13.3125,7.9375,1.625,-0.18701171875,-0.77099609375,0.8359375
35,1597839923323080,0.066162109375,-0.31573486328125,0.81134033203125,-0.48748779296875,31.6875,4.0625,1.75,-0.166015625,-0.6552734375,0.81201171875
36,1597839923338032,0.06280517578125,-0.3111572265625,0.81317138671875,-0.48785400390625,28.0625,2.875,-0.6875,-0.19873046875,-0.455078125,0.78662109375
37,1597839923360572,0.062255859375,-0.31109619140625,0.81292724609375,-0.48834228515625,1.125,1.9375,4.125,-0.189453125,-0.55126953125,0.78466796875
38,1597839923381610,0.0628662109375,-0.31219482421875,0.81243896484375,-0.4884033203125,-4.75,2.375,3.5,-0.162109375,-0.626953125,0.8046875
39,1597839923397566,0.0616455078125,-0.31158447265625,0.81292724609375,-0.4881591796875,6.375,5.125,-0.25,-0.2041015625,-0.587890625,0.8388671875
40,1597839923421703,0.060302734375,-0.31036376953125,0.8134765625,-0.4881591796875,10.5,3.0625,0.5,-0.20703125,-0.5732421875,0.810546875
41,1597839923434658,0.059814453125,-0.30975341796875,0.81353759765625,-0.488525390625,3.625,0.9375,2.875,-0.18896484375,-0.55712890625,0.8173828125
42,1597839923457560,0.06005859375,-0.30999755859375,0.81317138671875,-0.4888916015625,-1.25,-0.6875,2.5625,-0.201171875,-0.59228515625,0.8095703125
43,1597839923480657,0.05987548828125,-0.30950927734375,0.81341552734375,-0.48876953125,4.25,1.4375,0.5,-0.18212890625,-0.591796875,0.8154296875
44,1597839923494972,0.05938720703125,-0.30914306640625,0.813720703125,-0.4886474609375,2.6875,2.6875,-0.1875,-0.1904296875,-0.564453125,0.8271484375
45,1597839923517331,0.05926513671875,-0.30963134765625,0.8135986328125,-0.488525390625,-2.125,2.0625,0.1875,-0.2099609375,-0.57177734375,0.81591796875
46,1597839923540478,0.05950927734375,-0.31011962890625,0.81341552734375,-0.48846435546875,-3.25,0.3125,0.1875,-0.20849609375,-0.583984375,0.8232421875
47,1597839923554528,0.0595703125,-0.31011962890625,0.81341552734375,-0.48846435546875,-0.8125,-0.1875,0.25,-0.2021484375,-0.58251953125,0.81640625
48,1597839923577297,0.05938720703125,-0.31011962890625,0.8134765625,-0.4884033203125,0.4375,1.375,0.125,-0.201171875,-0.57421875,0.82177734375
49,1597839923600284,0.05926513671875,-0.310791015625,0.8133544921875,-0.48822021484375,-3.0,3.125,0.0,-0.21142578125,-0.58349609375,0.82421875
50,1597839923614286,0.05865478515625,-0.31085205078125,0.8135986328125,-0.48785400390625,0.5,3.4375,-1.6875,-0.2197265625,-0.56591796875,0.830078125
51,1597839923638248,0.0584716796875,-0.31109619140625,0.8135986328125,-0.4876708984375,0.0,1.9375,-0.5,-0.21435546875,-0.58837890625,0.82080078125
52,1597839923660733,0.0584716796875,-0.31109619140625,0.8135986328125,-0.4876708984375,-0.75,0.75,0.375,-0.21923828125,-0.58447265625,0.8232421875
53,1597839923681734,0.05816650390625,-0.31097412109375,0.81365966796875,-0.4876708984375,1.3125,1.0,0.25,-0.21142578125,-0.57373046875,0.81640625
54,1597839923697864,0.05767822265625,-0.3106689453125,0.81414794921875,-0.4871826171875,3.0,2.5,-2.625,-0.21142578125,-0.568359375,0.82470703125
55,1597839923720873,0.05706787109375,-0.31036376953125,0.81451416015625,-0.48681640625,2.5,2.3125,-2.375,-0.228515625,-0.5625,0.826171875
56,1597839923741718,0.0567626953125,-0.31072998046875,0.81439208984375,-0.48675537109375,-1.1875,1.625,0.0,-0.22607421875,-0.576171875,0.82666015625
57,1597839923757723,0.056640625,-0.31060791015625,0.814453125,-0.48675537109375,1.8125,0.1875,0.1875,-0.21875,-0.58837890625,0.81494140625
58,1597839923780727,0.05621337890625,-0.31036376953125,0.81463623046875,-0.48663330078125,2.4375,1.6875,-0.5,-0.21435546875,-0.56640625,0.81494140625
59,1597839923801722,0.05572509765625,-0.310546875,0.81475830078125,-0.4864501953125,-0.0625,2.5,-0.6875,-0.22314453125,-0.5625,0.82080078125
60,1597839923817730,0.0555419921875,-0.31109619140625,0.81475830078125,-0.486083984375,-2.25,2.5625,-1.875,-0.2314453125,-0.57958984375,0.826171875
61,1597839923840000,0.05548095703125,-0.31170654296875,0.81475830078125,-0.48577880859375,-1.8125,1.75,-1.375,-0.228515625,-0.58984375,0.81689453125
62,1597839923861352,0.05535888671875,-0.3118896484375,0.8148193359375,-0.48553466796875,0.375,1.4375,-0.8125,-0.21923828125,-0.5869140625,0.8115234375
63,1597839923878263,0.0552978515625,-0.31256103515625,0.814697265625,-0.48529052734375,-2.0,1.125,-1.0625,-0.240234375,-0.59619140625,0.8095703125
64,1597839923900035,0.0550537109375,-0.3125,0.81475830078125,-0.48529052734375,1.125,-0.25,-0.625,-0.23828125,-0.5771484375,0.81787109375
65,1597839923921039,0.0548095703125,-0.31207275390625,0.81488037109375,-0.4853515625,2.3125,0.125,-0.125,-0.21826171875,-0.5634765625,0.81396484375
66,1597839923938039,0.05474853515625,-0.31201171875,0.81475830078125,-0.485595703125,0.8125,-0.8125,1.625,-0.220703125,-0.57568359375,0.8056640625
67,1597839923960405,0.05474853515625,-0.31207275390625,0.81475830078125,-0.485595703125,-0.625,-0.75,0.6875,-0.21875,-0.5849609375,0.8046875
68,1597839923981278,0.05487060546875,-0.3123779296875,0.81463623046875,-0.485595703125,-1.125,-0.25,0.125,-0.22900390625,-0.5888671875,0.814453125
69,1597839923997270,0.0548095703125,-0.3123779296875,0.81463623046875,-0.485595703125,-0.0625,-0.4375,0.9375,-0.2275390625,-0.5751953125,0.8134765625
70,1597839924020515,0.054931640625,-0.3126220703125,0.81439208984375,-0.48583984375,-1.625,-0.375,1.5,-0.2216796875,-0.58056640625,0.81640625
71,1597839924041774,0.05487060546875,-0.31268310546875,0.81427001953125,-0.48602294921875,-0.25,-0.4375,1.0625,-0.22705078125,-0.57373046875,0.81396484375
72,1597839924057724,0.054931640625,-0.31268310546875,0.81414794921875,-0.4862060546875,-1.375,-0.9375,0.5,-0.2275390625,-0.5615234375,0.82373046875
73,1597839924080546,0.05517578125,-0.31292724609375,0.81402587890625,-0.48614501953125,-2.5625,-0.75,-0.5,-0.224609375,-0.5732421875,0.82080078125
74,1597839924101726,0.05517578125,-0.3128662109375,0.81402587890625,-0.4862060546875,-0.4375,-0.6875,-0.4375,-0.2216796875,-0.55908203125,0.82275390625
75,1597839924117670,0.0555419921875,-0.3131103515625,0.81390380859375,-0.4862060546875,-2.375,-1.25,-0.125,-0.21875,-0.5771484375,0.81640625
76,1597839924140677,0.05584716796875,-0.31304931640625,0.81402587890625,-0.48602294921875,-0.125,-1.4375,-1.8125,-0.2265625,-0.587890625,0.82275390625
77,1597839924162799,0.0560302734375,-0.31268310546875,0.8143310546875,-0.48577880859375,0.9375,-1.875,-3.0,-0.2255859375,-0.56298828125,0.81396484375
78,1597839924184175,0.05645751953125,-0.31243896484375,0.8145751953125,-0.48541259765625,-1.4375,-2.1875,-3.75,-0.21728515625,-0.5439453125,0.8076171875
79,1597839924200569,0.0576171875,-0.3128662109375,0.814697265625,-0.48480224609375,-5.6875,-2.875,-5.0,-0.20263671875,-0.560546875,0.80126953125
80,1597839924222723,0.05926513671875,-0.3138427734375,0.8148193359375,-0.4837646484375,-9.5625,-1.875,-7.5,-0.1904296875,-0.5634765625,0.7978515625
81,1597839924238718,0.0609130859375,-0.315185546875,0.81524658203125,-0.48199462890625,-10.625,-0.125,-11.0625,-0.19091796875,-0.58251953125,0.80078125
82,1597839924260730,0.0625,-0.31634521484375,0.81573486328125,-0.480224609375,-8.5,-0.625,-11.9375,-0.20458984375,-0.59619140625,0.79443359375
83,1597839924282731,0.0643310546875,-0.31719970703125,0.816162109375,-0.4786376953125,-6.9375,-3.0,-11.0,-0.19287109375,-0.61328125,0.794921875
84,1597839924296737,0.06591796875,-0.3173828125,0.81695556640625,-0.47698974609375,-2.5625,-2.9375,-11.875,-0.185546875,-0.6220703125,0.79052734375
85,1597839924321040,0.06756591796875,-0.3170166015625,0.81781005859375,-0.4755859375,0.375,-6.25,-11.6875,-0.1962890625,-0.6142578125,0.787109375
86,1597839924342908,0.06988525390625,-0.3160400390625,0.818359375,-0.474853515625,2.75,-13.25,-9.375,-0.1982421875,-0.62158203125,0.74365234375
87,1597839924359910,0.07275390625,-0.3150634765625,0.818359375,-0.47509765625,-0.125,-16.6875,-3.8125,-0.1728515625,-0.609375,0.751953125
88,1597839924380051,0.07574462890625,-0.31463623046875,0.818115234375,-0.475341796875,-3.5625,-14.875,-2.75,-0.1572265625,-0.6259765625,0.771484375
89,1597839924402907,0.0780029296875,-0.31439208984375,0.818115234375,-0.47515869140625,-3.5625,-11.5,-4.875,-0.17724609375,-0.61474609375,0.78759765625
90,1597839924417420,0.0802001953125,-0.31463623046875,0.81793212890625,-0.474853515625,-6.9375,-9.5,-4.9375,-0.17431640625,-0.6123046875,0.8017578125
91,1597839924439897,0.08258056640625,-0.31488037109375,0.81781005859375,-0.47454833984375,-8.625,-10.0625,-5.625,-0.17236328125,-0.6005859375,0.81298828125
92,1597839924463057,0.0849609375,-0.31494140625,0.81781005859375,-0.47412109375,-8.875,-10.25,-6.5,-0.17041015625,-0.6005859375,0.82958984375
93,1597839924477976,0.08734130859375,-0.31549072265625,0.817626953125,-0.4736328125,-10.9375,-9.1875,-6.5625,-0.17041015625,-0.61474609375,0.8359375
94,1597839924500743,0.08941650390625,-0.315673828125,0.81768798828125,-0.4730224609375,-7.5,-8.875,-7.125,-0.17138671875,-0.611328125,0.8193359375
95,1597839924522976,0.0911865234375,-0.315673828125,0.8177490234375,-0.4725341796875,-7.9375,-7.6875,-6.6875,-0.1689453125,-0.5927734375,0.8388671875
96,1597839924537464,0.0927734375,-0.31634521484375,0.8177490234375,-0.4718017578125,-11.25,-5.375,-7.25,-0.17724609375,-0.5947265625,0.85302734375
97,1597839924560066,0.0941162109375,-0.31719970703125,0.817626953125,-0.47119140625,-9.9375,-4.4375,-5.9375,-0.18310546875,-0.63134765625,0.84912109375
98,1597839924583074,0.09521484375,-0.3173828125,0.81768798828125,-0.47064208984375,-5.0,-4.25,-5.5625,-0.1650390625,-0.634765625,0.8330078125
99,1597839924603970,0.0958251953125,-0.3167724609375,0.818115234375,-0.47027587890625,0.6875,-4.5,-5.3125,-0.16552734375,-0.62451171875,0.83203125
