index,timestamp,orientation_x,orientation_y,orientation_z,orientation_w,gyroscope_x,gyroscope_y,gyroscope_z,acceleration_x,acceleration_y,acceleration_z
0,1597839859813068,0.07171630859375,-0.205078125,0.85614013671875,-0.4688720703125,2.75,5.4375,3.3125,-0.068359375,-0.42919921875,0.9208984375
1,1597839859827971,0.07049560546875,-0.205078125,0.85601806640625,-0.46917724609375,3.25,5.875,3.5,-0.06884765625,-0.421875,0.91552734375
2,1597839859851203,0.06927490234375,-0.205322265625,0.85595703125,-0.46942138671875,1.9375,6.375,2.9375,-0.072265625,-0.42041015625,0.92041015625
3,1597839859873223,0.068115234375,-0.2056884765625,0.8558349609375,-0.4696044921875,1.1875,6.4375,2.75,-0.0791015625,-0.43017578125,0.92822265625
4,1597839859887973,0.06707763671875,-0.20599365234375,0.85577392578125,-0.4698486328125,1.5625,5.875,2.6875,-0.07958984375,-0.42578125,0.92138671875
5,1597839859910962,0.0660400390625,-0.20623779296875,0.85565185546875,-0.47003173828125,2.1875,5.25,2.5625,-0.08056640625,-0.43115234375,0.91064453125
6,1597839859932960,0.06488037109375,-0.206298828125,0.85565185546875,-0.47021484375,3.4375,5.5625,2.375,-0.08740234375,-0.4248046875,0.9169921875
7,1597839859946959,0.0638427734375,-0.206298828125,0.85565185546875,-0.47039794921875,3.0,4.8125,1.875,-0.08544921875,-0.42138671875,0.92041015625
8,1597839859970971,0.06304931640625,-0.20635986328125,0.85565185546875,-0.47039794921875,1.625,4.4375,1.3125,-0.083984375,-0.41845703125,0.9169921875
9,1597839859992979,0.0623779296875,-0.20660400390625,0.8555908203125,-0.470458984375,1.125,3.8125,1.0625,-0.08984375,-0.42431640625,0.912109375
10,1597839860007367,0.061767578125,-0.206787109375,0.8555908203125,-0.4705810546875,1.25,2.875,1.3125,-0.09619140625,-0.421875,0.9150390625
11,1597839860030406,0.06103515625,-0.2066650390625,0.8555908203125,-0.47064208984375,3.125,2.6875,0.9375,-0.0947265625,-0.4208984375,0.9091796875
12,1597839860053401,0.060546875,-0.20654296875,0.855712890625,-0.47052001953125,2.75,2.25,-0.125,-0.09228515625,-0.421875,0.9091796875
13,1597839860067399,0.06024169921875,-0.20654296875,0.855712890625,-0.47052001953125,1.4375,1.75,0.5,-0.08349609375,-0.42236328125,0.90478515625
14,1597839860090403,0.06011962890625,-0.20672607421875,0.855712890625,-0.4705810546875,-0.0625,1.6875,0.8125,-0.0849609375,-0.416015625,0.900390625
15,1597839860112757,0.0596923828125,-0.20703125,0.8555908203125,-0.470703125,0.3125,1.8125,1.1875,-0.10546875,-0.42626953125,0.91796875
16,1597839860135035,0.05902099609375,-0.2071533203125,0.85540771484375,-0.4710693359375,2.9375,1.875,2.625,-0.1181640625,-0.44921875,0.919921875
17,1597839860150921,0.0582275390625,-0.2064208984375,0.855224609375,-0.4718017578125,7.3125,-0.6875,4.25,-0.12158203125,-0.44970703125,0.94873046875
18,1597839860172923,0.05645751953125,-0.20465087890625,0.8551025390625,-0.4730224609375,13.375,-0.5625,6.625,-0.1552734375,-0.44287109375,1.01171875
19,1597839860194092,0.052490234375,-0.20147705078125,0.8553466796875,-0.47442626953125,34.8125,6.5625,9.375,-0.1513671875,-0.54150390625,0.970703125
20,1597839860210153,0.05230712890625,-0.20147705078125,0.85150146484375,-0.481201171875,15.5,-15.625,42.625,-0.20263671875,-0.58544921875,0.72314453125
21,1597839860233146,0.048828125,-0.189453125,0.84979248046875,-0.48944091796875,76.625,-32.0,43.75,-0.19482421875,-0.4951171875,0.93505859375
22,1597839860254156,0.037841796875,-0.17218017578125,0.8541259765625,-0.48931884765625,116.125,11.9375,-4.0625,0.2275390625,-0.1708984375,1.0810546875
23,1597839860270976,0.02392578125,-0.156494140625,0.86138916015625,-0.48260498046875,92.5625,44.5625,-42.0625,0.064453125,0.12451171875,1.01171875
24,1597839860298987,0.0186767578125,-0.1617431640625,0.859619140625,-0.48431396484375,-20.6875,14.125,9.9375,-0.4873046875,-0.16845703125,0.91796875
25,1597839860314187,0.0206298828125,-0.16552734375,0.85888671875,-0.48419189453125,-7.0625,1.875,2.5625,-0.1220703125,-0.59521484375,1.01513671875
26,1597839860330193,0.01739501953125,-0.15972900390625,0.86041259765625,-0.4835205078125,45.5,1.25,-3.875,-0.1201171875,-0.39599609375,0.96630859375
27,1597839860353327,0.01336669921875,-0.1522216796875,0.86199951171875,-0.48333740234375,40.9375,-8.0625,-5.9375,-0.23193359375,-0.142578125,0.93994140625
28,1597839860374210,0.01434326171875,-0.150634765625,0.8623046875,-0.4832763671875,0.6875,-8.1875,-2.375,-0.10205078125,-0.19921875,0.93701171875
29,1597839860390193,0.01629638671875,-0.1512451171875,0.862548828125,-0.4825439453125,-5.0625,-4.125,-4.4375,-0.0693359375,-0.3251953125,0.9541015625
30,1597839860413081,0.016357421875,-0.1490478515625,0.86334228515625,-0.48187255859375,11.25,-1.875,-4.9375,-0.06201171875,-0.27685546875,0.96484375
31,1597839860436080,0.01605224609375,-0.14801025390625,0.863525390625,-0.48175048828125,4.375,1.75,-0.3125,-0.0751953125,-0.25048828125,0.974609375
32,1597839860451078,0.01629638671875,-0.1470947265625,0.8631591796875,-0.48272705078125,6.125,-2.5,6.3125,-0.07763671875,-0.30615234375,0.951171875
33,1597839860473254,0.01605224609375,-0.14556884765625,0.86297607421875,-0.4835205078125,9.0,-1.4375,5.5625,-0.080078125,-0.275390625,0.935546875
34,1597839860494247,0.01617431640625,-0.14447021484375,0.8629150390625,-0.4840087890625,4.8125,-3.4375,2.3125,-0.10205078125,-0.25732421875,0.9365234375
35,1597839860511076,0.01751708984375,-0.14471435546875,0.86279296875,-0.48406982421875,-5.5,-6.8125,-0.5625,-0.11572265625,-0.25341796875,0.93017578125
36,1597839860533535,0.01947021484375,-0.144287109375,0.8629150390625,-0.48388671875,-1.125,-8.0,-2.25,-0.06396484375,-0.2880859375,0.92529296875
37,1597839860556082,0.02093505859375,-0.14373779296875,0.86322021484375,-0.48345947265625,-1.8125,-6.0,-3.75,-0.06640625,-0.2529296875,0.94384765625
38,1597839860571085,0.02227783203125,-0.14361572265625,0.86346435546875,-0.4830322265625,-4.875,-4.6875,-3.25,-0.07177734375,-0.2421875,0.94921875
39,1597839860593081,0.02362060546875,-0.1436767578125,0.86358642578125,-0.48272705078125,-3.625,-4.8125,-2.625,-0.076171875,-0.2802734375,0.96044921875
40,1597839860615339,0.0245361328125,-0.14300537109375,0.8636474609375,-0.48272705078125,1.3125,-5.25,-0.875,-0.07763671875,-0.27490234375,0.953125
41,1597839860631333,0.02496337890625,-0.1422119140625,0.86376953125,-0.48272705078125,1.875,-2.5,-0.25,-0.0693359375,-0.259765625,0.9658203125
42,1597839860653622,0.025146484375,-0.1419677734375,0.86383056640625,-0.48272705078125,1.0625,-0.25,-0.1875,-0.07421875,-0.27783203125,0.978515625
43,1597839860675486,0.02520751953125,-0.14166259765625,0.86370849609375,-0.4830322265625,0.5,-2.5,1.625,-0.10986328125,-0.26806640625,0.97265625
44,1597839860690334,0.02581787109375,-0.14166259765625,0.863525390625,-0.48333740234375,-0.375,-3.0625,1.5,-0.09423828125,-0.294921875,0.97900390625
45,1597839860713695,0.02545166015625,-0.1409912109375,0.86358642578125,-0.4833984375,3.625,0.5,0.5625,-0.08349609375,-0.26806640625,0.98828125
46,1597839860735571,0.0245361328125,-0.14080810546875,0.86358642578125,-0.4835205078125,1.625,2.9375,0.9375,-0.10986328125,-0.25,0.99560546875
47,1597839860750562,0.02447509765625,-0.140869140625,0.86346435546875,-0.48370361328125,-1.3125,-1.25,0.75,-0.12109375,-0.2578125,0.98583984375
48,1597839860773565,0.02490234375,-0.14093017578125,0.86322021484375,-0.484130859375,-0.1875,-2.375,2.4375,-0.0947265625,-0.296875,0.9755859375
49,1597839860795481,0.02435302734375,-0.14044189453125,0.86322021484375,-0.4842529296875,3.375,1.1875,0.875,-0.095703125,-0.259765625,0.97314453125
50,1597839860810350,0.02386474609375,-0.14111328125,0.86322021484375,-0.48406982421875,-2.875,2.875,-0.875,-0.11962890625,-0.259765625,0.9755859375
51,1597839860833353,0.02386474609375,-0.14178466796875,0.86309814453125,-0.48406982421875,-3.0625,1.25,0.0625,-0.1103515625,-0.27734375,0.9716796875
52,1597839860855345,0.0238037109375,-0.14251708984375,0.86309814453125,-0.48388671875,-3.25,1.9375,-0.75,-0.10546875,-0.2822265625,0.98095703125
53,1597839860869338,0.0230712890625,-0.14251708984375,0.86309814453125,-0.48394775390625,1.8125,3.25,0.6875,-0.1044921875,-0.2646484375,0.97119140625
54,1597839860894632,0.0224609375,-0.14276123046875,0.863037109375,-0.4840087890625,0.1875,2.5625,0.75,-0.11669921875,-0.26708984375,0.95361328125
55,1597839860915526,0.0223388671875,-0.14306640625,0.8629150390625,-0.484130859375,-0.875,1.3125,1.0,-0.09765625,-0.2724609375,0.951171875
56,1597839860937426,0.022216796875,-0.1434326171875,0.8629150390625,-0.48406982421875,-0.375,1.3125,0.0625,-0.10205078125,-0.28466796875,0.95556640625
57,1597839860961425,0.02203369140625,-0.14361572265625,0.86285400390625,-0.48406982421875,-0.4375,1.125,-0.0625,-0.107421875,-0.27392578125,0.9638671875
58,1597839860975427,0.022216796875,-0.14385986328125,0.86285400390625,-0.4840087890625,-2.1875,-0.375,-0.5,-0.1025390625,-0.2607421875,0.9560546875
59,1597839860990431,0.022705078125,-0.14434814453125,0.86273193359375,-0.4840087890625,-3.4375,-0.625,0.125,-0.09814453125,-0.28271484375,0.9609375
60,1597839861014435,0.02301025390625,-0.1444091796875,0.86248779296875,-0.4844970703125,-0.625,-2.0625,2.8125,-0.10498046875,-0.28125,0.95654296875
61,1597839861041574,0.02313232421875,-0.1444091796875,0.86224365234375,-0.48486328125,-0.3125,-1.0625,2.4375,-0.09716796875,-0.275390625,0.95263671875
62,1597839861050453,0.02349853515625,-0.14508056640625,0.86187744140625,-0.4853515625,-3.625,-1.0,3.0625,-0.11181640625,-0.2841796875,0.955078125
63,1597839861073425,0.0238037109375,-0.14495849609375,0.861572265625,-0.48590087890625,-1.125,-2.9375,3.1875,-0.10693359375,-0.2685546875,0.9609375
64,1597839861095742,0.0244140625,-0.1451416015625,0.8612060546875,-0.4864501953125,-2.625,-3.0,3.0,-0.10107421875,-0.27490234375,0.95361328125
65,1597839861117024,0.02490234375,-0.14556884765625,0.8609619140625,-0.48675537109375,-3.3125,-0.625,2.25,-0.08740234375,-0.283203125,0.966796875
66,1597839861133655,0.02496337890625,-0.145751953125,0.86083984375,-0.48687744140625,-1.8125,-0.0625,0.9375,-0.1015625,-0.27392578125,0.97216796875
67,1597839861155659,0.02532958984375,-0.14581298828125,0.86065673828125,-0.48724365234375,-2.9375,-3.5,1.1875,-0.1220703125,-0.2568359375,0.96875
68,1597839861178652,0.02618408203125,-0.14599609375,0.8603515625,-0.48760986328125,-3.5,-3.875,1.8125,-0.0986328125,-0.28173828125,0.9716796875
69,1597839861193650,0.02667236328125,-0.14605712890625,0.8602294921875,-0.48779296875,-2.125,-2.125,0.9375,-0.09228515625,-0.2763671875,0.96484375
70,1597839861215334,0.0269775390625,-0.146240234375,0.86016845703125,-0.48785400390625,-1.9375,-1.4375,0.4375,-0.1025390625,-0.27880859375,0.97998046875
71,1597839861237314,0.02728271484375,-0.1463623046875,0.86004638671875,-0.48797607421875,-3.25,-1.8125,0.0,-0.10498046875,-0.26318359375,0.98388671875
72,1597839861253320,0.02777099609375,-0.14654541015625,0.8599853515625,-0.48797607421875,-3.5,-1.6875,-0.1875,-0.095703125,-0.27294921875,0.98583984375
73,1597839861275307,0.0281982421875,-0.14697265625,0.86004638671875,-0.48779296875,-3.5625,-0.8125,-1.4375,-0.1015625,-0.2802734375,0.9765625
74,1597839861296310,0.02838134765625,-0.146728515625,0.860107421875,-0.4876708984375,-0.875,-1.625,-1.125,-0.0966796875,-0.2685546875,0.974609375
75,1597839861312902,0.029052734375,-0.147216796875,0.860107421875,-0.487548828125,-5.5,-2.3125,-1.4375,-0.1015625,-0.26513671875,0.96044921875
76,1597839861335897,0.02996826171875,-0.148193359375,0.860107421875,-0.4871826171875,-6.875,-0.0625,-1.625,-0.06982421875,-0.2919921875,0.9482421875
77,1597839861356907,0.030517578125,-0.1492919921875,0.86016845703125,-0.4866943359375,-4.0,3.3125,-2.0,-0.0546875,-0.33056640625,0.95947265625
78,1597839861372990,0.02972412109375,-0.15069580078125,0.8603515625,-0.4859619140625,-1.6875,8.9375,-2.9375,-0.0888671875,-0.33642578125,0.95361328125
79,1597839861396073,0.02789306640625,-0.14990234375,0.860595703125,-0.4859619140625,8.5625,9.9375,1.6875,-0.05322265625,-0.2734375,0.955078125
80,1597839861416544,0.02581787109375,-0.1505126953125,0.86016845703125,-0.486572265625,-5.1875,16.5625,7.0,-0.0244140625,-0.17041015625,0.9501953125
81,1597839861432525,0.02618408203125,-0.15679931640625,0.8583984375,-0.4876708984375,-37.625,16.0,10.75,-0.08837890625,-0.236328125,0.962890625
82,1597839861455672,0.028076171875,-0.16259765625,0.85638427734375,-0.4892578125,-41.0,4.5,11.875,-0.1259765625,-0.23828125,0.986328125
83,1597839861477004,0.03082275390625,-0.1680908203125,0.85467529296875,-0.49017333984375,-37.5625,1.3125,7.5,-0.10546875,-0.30615234375,0.96923828125
84,1597839861492668,0.03363037109375,-0.17303466796875,0.853515625,-0.49029541015625,-33.125,-3.1875,0.875,-0.15234375,-0.31201171875,0.89794921875
85,1597839861515745,0.03802490234375,-0.17926025390625,0.8521728515625,-0.4901123046875,-41.9375,-4.1875,-0.125,-0.11328125,-0.37646484375,0.91943359375
86,1597839861537740,0.0419921875,-0.18365478515625,0.8514404296875,-0.48944091796875,-31.125,-7.375,-4.375,-0.1171875,-0.3857421875,0.9169921875
87,1597839861552729,0.044921875,-0.18560791015625,0.85113525390625,-0.48895263671875,-16.3125,-8.75,-4.0625,-0.11474609375,-0.392578125,0.93212890625
88,1597839861576049,0.04742431640625,-0.18731689453125,0.85064697265625,-0.4888916015625,-13.9375,-9.0625,-1.6875,-0.12890625,-0.4013671875,0.93994140625
89,1597839861599724,0.0499267578125,-0.1876220703125,0.85064697265625,-0.48858642578125,-7.4375,-11.9375,-4.125,-0.109375,-0.388671875,0.93017578125
90,1597839861612627,0.0526123046875,-0.18743896484375,0.8502197265625,-0.48907470703125,-4.9375,-14.5,0.8125,-0.09716796875,-0.38671875,0.89794921875
91,1597839861635847,0.05511474609375,-0.18701171875,0.8499755859375,-0.48944091796875,-3.75,-14.25,-0.4375,-0.09375,-0.39013671875,0.91064453125
92,1597839861658365,0.05682373046875,-0.18609619140625,0.84991455078125,-0.4896240234375,0.9375,-12.0625,-1.5,-0.10205078125,-0.40283203125,0.94189453125
93,1597839861672384,0.0582275390625,-0.1849365234375,0.85003662109375,-0.48974609375,2.375,-11.6875,-2.0625,-0.10693359375,-0.3896484375,0.94970703125
94,1597839861696192,0.0594482421875,-0.1832275390625,0.85009765625,-0.4901123046875,4.5625,-12.75,-0.875,-0.10400390625,-0.37451171875,0.9541015625
95,1597839861718353,0.0611572265625,-0.181640625,0.8499755859375,-0.49072265625,2.625,-14.125,0.625,-0.08740234375,-0.375,0.9560546875
96,1597839861732759,0.062744140625,-0.1806640625,0.8499755859375,-0.49090576171875,0.0,-11.375,-1.375,-0.087890625,-0.376953125,0.95849609375
97,1597839861755359,0.06414794921875,-0.1802978515625,0.84979248046875,-0.4910888671875,-1.875,-9.8125,-1.0,-0.095703125,-0.38818359375,0.9619140625
98,1597839861778354,0.0654296875,-0.17974853515625,0.84979248046875,-0.49114990234375,-1.9375,-8.4375,-1.5625,-0.07666015625,-0.3720703125,0.97021484375
99,1597839861793370,0.06646728515625,-0.179443359375,0.84991455078125,-0.490966796875,-1.8125,-5.9375,-2.5,-0.06982421875,-0.3798828125,0.96337890625
100,1597839861815739,0.0672607421875,-0.17913818359375,0.8499755859375,-0.4908447265625,-2.1875,-5.625,-2.3125,-0.08056640625,-0.36474609375,0.9619140625
