index,timestamp,orientation_x,orientation_y,orientation_z,orientation_w,gyroscope_x,gyroscope_y,gyroscope_z,acceleration_x,acceleration_y,acceleration_z
0,1597652441618649,0.03955078125,-0.10693359375,-0.63922119140625,0.760498046875,0.6875,-0.1875,-2.1875,0.10009765625,0.21923828125,0.96142578125
1,1597652441632653,0.0389404296875,-0.106689453125,-0.63934326171875,0.760498046875,-4.0,-0.9375,-0.125,0.11376953125,0.19921875,0.96484375
2,1597652441655855,0.03826904296875,-0.10626220703125,-0.63934326171875,0.76055908203125,-3.25,-0.0625,0.3125,0.115234375,0.16845703125,0.9580078125
3,1597652441678363,0.038330078125,-0.1060791015625,-0.639404296875,0.760498046875,1.1875,0.625,-0.875,0.1103515625,0.169921875,0.96875
4,1597652441692438,0.03887939453125,-0.106201171875,-0.6395263671875,0.7603759765625,2.625,0.8125,-1.1875,0.1005859375,0.19580078125,0.9697265625
5,1597652441716295,0.0389404296875,-0.106201171875,-0.6395263671875,0.7603759765625,0.0,0.0,-0.1875,0.09716796875,0.20166015625,0.95654296875
6,1597652441738063,0.03851318359375,-0.1058349609375,-0.6395263671875,0.76043701171875,-2.8125,-0.25,0.5,0.1064453125,0.185546875,0.95361328125
7,1597652441753060,0.03851318359375,-0.1058349609375,-0.6395263671875,0.760498046875,-0.25,0.1875,0.0625,0.111328125,0.17529296875,0.96435546875
8,1597652441776058,0.03887939453125,-0.10595703125,-0.6395263671875,0.76043701171875,1.625,0.375,-0.1875,0.10400390625,0.19775390625,0.9716796875
9,1597652441798055,0.03887939453125,-0.10595703125,-0.6395263671875,0.76043701171875,0.8125,-0.5,0.0625,0.0986328125,0.201171875,0.9599609375
10,1597652441813058,0.03851318359375,-0.1058349609375,-0.63946533203125,0.76055908203125,-1.5625,-0.5,0.875,0.1142578125,0.18408203125,0.9599609375
11,1597652441836053,0.0384521484375,-0.10577392578125,-0.63946533203125,0.76055908203125,-0.3125,-0.125,0.875,0.11083984375,0.16796875,0.95361328125
12,1597652441858351,0.03887939453125,-0.10626220703125,-0.63922119140625,0.7606201171875,3.3125,-0.9375,1.25,0.1064453125,0.201171875,0.9775390625
13,1597652441872350,0.0390625,-0.10650634765625,-0.63897705078125,0.76080322265625,1.0625,-1.125,1.5625,0.1005859375,0.203125,0.966796875
14,1597652441896361,0.03875732421875,-0.10662841796875,-0.638671875,0.76104736328125,0.125,-1.0625,2.4375,0.11572265625,0.17724609375,0.95703125
15,1597652441918367,0.0389404296875,-0.1070556640625,-0.6383056640625,0.76129150390625,1.875,-0.8125,2.5625,0.11181640625,0.2021484375,0.966796875
16,1597652441939139,0.0394287109375,-0.10711669921875,-0.637939453125,0.7615966796875,2.1875,1.0,2.375,0.10107421875,0.20361328125,0.98046875
17,1597652441956140,0.0394287109375,-0.10626220703125,-0.6373291015625,0.76220703125,-1.0625,3.3125,4.6875,0.099609375,0.16943359375,0.97412109375
18,1597652441978378,0.0396728515625,-0.10614013671875,-0.63665771484375,0.76275634765625,2.375,2.1875,4.75,0.11376953125,0.16796875,0.953125
19,1597652441999709,0.04071044921875,-0.10650634765625,-0.63623046875,0.76300048828125,4.1875,2.5625,2.1875,0.11474609375,0.22705078125,0.98388671875
20,1597652442016131,0.04315185546875,-0.1064453125,-0.635986328125,0.76312255859375,6.8125,7.3125,0.6875,0.07666015625,0.25732421875,0.982421875
21,1597652442038277,0.04327392578125,-0.10540771484375,-0.63543701171875,0.763671875,-3.5,1.6875,5.0,0.0458984375,0.19921875,0.94775390625
22,1597652442059276,0.04290771484375,-0.10504150390625,-0.6348876953125,0.76422119140625,0.8125,2.75,3.8125,0.1376953125,0.14697265625,0.97998046875
23,1597652442075279,0.043701171875,-0.1055908203125,-0.63397216796875,0.764892578125,6.75,3.8125,5.3125,0.14404296875,0.1806640625,0.93994140625
24,1597652442098408,0.0458984375,-0.10675048828125,-0.63238525390625,0.765869140625,13.6875,5.3125,9.25,0.12890625,0.22265625,0.994140625
25,1597652442119280,0.0487060546875,-0.1055908203125,-0.63092041015625,0.76702880859375,7.5,16.75,8.5625,0.103515625,0.22314453125,0.958984375
26,1597652442135275,0.05010986328125,-0.1025390625,-0.6302490234375,0.7679443359375,-4.4375,18.125,4.8125,0.07763671875,0.20068359375,0.97509765625
27,1597652442158471,0.0528564453125,-0.10101318359375,-0.62939453125,0.7686767578125,2.6875,15.6875,4.9375,0.0625,0.25634765625,0.93017578125
28,1597652442179467,0.05224609375,-0.0986328125,-0.6287841796875,0.76953125,-12.375,7.9375,5.6875,0.0634765625,0.216796875,0.94287109375
29,1597652442196037,0.05157470703125,-0.09613037109375,-0.62823486328125,0.77032470703125,-9.875,11.6875,4.375,0.11865234375,0.1669921875,0.96435546875
30,1597652442225811,0.05328369140625,-0.09515380859375,-0.62786865234375,0.7706298828125,4.8125,14.4375,0.4375,0.13525390625,0.1923828125,0.98046875
31,1597652442239539,0.05712890625,-0.0947265625,-0.62750244140625,0.77069091796875,9.375,15.4375,0.25,0.06689453125,0.291015625,0.96142578125
32,1597652442255640,0.06005859375,-0.09344482421875,-0.62774658203125,0.77044677734375,2.75,15.5625,-3.4375,0.0625,0.29150390625,0.98486328125
33,1597652442278538,0.05926513671875,-0.09039306640625,-0.627685546875,0.77093505859375,-13.4375,14.5625,0.3125,0.12158203125,0.1875,0.9697265625
34,1597652442299536,0.06005859375,-0.08740234375,-0.62750244140625,0.7713623046875,-5.25,17.25,0.875,0.06787109375,0.17333984375,0.97998046875
35,1597652442315772,0.06195068359375,-0.085693359375,-0.6270751953125,0.77178955078125,3.9375,12.375,2.125,0.02001953125,0.17822265625,0.9775390625
36,1597652442338540,0.0631103515625,-0.085205078125,-0.62646484375,0.772216796875,3.4375,6.0625,3.4375,0.04296875,0.19970703125,0.96337890625
37,1597652442360539,0.06298828125,-0.084228515625,-0.62628173828125,0.7724609375,-4.6875,4.5625,1.5,0.0576171875,0.2119140625,0.97607421875
38,1597652442375654,0.06298828125,-0.08251953125,-0.62652587890625,0.7724609375,-4.9375,8.5,-2.125,0.06494140625,0.18359375,0.98876953125
39,1597652442398543,0.064453125,-0.0806884765625,-0.62689208984375,0.772216796875,1.0625,14.375,-4.375,0.06494140625,0.18115234375,0.9765625
40,1597652442421148,0.066162109375,-0.0782470703125,-0.627197265625,0.7720947265625,-1.8125,18.375,-3.8125,0.05908203125,0.20458984375,0.96923828125
41,1597652442436015,0.06719970703125,-0.0748291015625,-0.6275634765625,0.77203369140625,-7.9375,19.0,-3.625,0.0341796875,0.1982421875,0.97314453125
42,1597652442458563,0.06781005859375,-0.07135009765625,-0.62799072265625,0.77197265625,-9.125,18.0,-4.0625,0.037109375,0.1826171875,0.98583984375
43,1597652442480826,0.06884765625,-0.06878662109375,-0.62860107421875,0.7716064453125,-4.4375,14.125,-5.25,0.00927734375,0.1845703125,0.97509765625
44,1597652442495569,0.06951904296875,-0.06756591796875,-0.62860107421875,0.77166748046875,-0.9375,9.0,-0.75,0.03271484375,0.18603515625,0.9775390625
45,1597652442518689,0.07012939453125,-0.06585693359375,-0.628173828125,0.7720947265625,-1.875,12.5,2.0,0.04833984375,0.16796875,0.98486328125
46,1597652442541301,0.07196044921875,-0.06396484375,-0.62762451171875,0.77252197265625,0.4375,15.625,2.5,0.01318359375,0.20263671875,0.97314453125
47,1597652442555313,0.07330322265625,-0.06207275390625,-0.62701416015625,0.7730712890625,1.1875,11.375,3.6875,-0.02685546875,0.1533203125,0.95263671875
48,1597652442578518,0.07421875,-0.06097412109375,-0.62652587890625,0.7734375,1.375,8.625,2.75,0.0,0.166015625,0.947265625
49,1597652442600680,0.07574462890625,-0.060302734375,-0.62615966796875,0.773681640625,4.625,8.6875,1.4375,0.00048828125,0.18505859375,0.958984375
50,1597652442615564,0.0770263671875,-0.0594482421875,-0.6259765625,0.77374267578125,4.0,7.8125,0.4375,-0.0166015625,0.1640625,0.94287109375
51,1597652442638671,0.0787353515625,-0.059814453125,-0.62591552734375,0.77362060546875,6.8125,0.75,0.125,-0.0595703125,0.2177734375,0.93701171875
52,1597652442660654,0.0782470703125,-0.06103515625,-0.62567138671875,0.77374267578125,2.125,-7.9375,2.25,-0.015625,0.1923828125,0.9296875
53,1597652442675129,0.07763671875,-0.06268310546875,-0.62518310546875,0.77410888671875,3.0625,-5.8125,3.875,0.04541015625,0.1875,0.93798828125
54,1597652442698767,0.0782470703125,-0.063232421875,-0.624755859375,0.7742919921875,4.8125,0.625,2.5,0.0126953125,0.1923828125,0.95849609375
55,1597652442720331,0.07867431640625,-0.06329345703125,-0.62481689453125,0.77423095703125,1.3125,0.4375,-0.5625,-0.01513671875,0.20556640625,0.9375
56,1597652442735204,0.0775146484375,-0.06341552734375,-0.625,0.774169921875,-4.125,-4.75,-0.625,0.0029296875,0.18408203125,0.9521484375
57,1597652442757818,0.07757568359375,-0.0638427734375,-0.625,0.77410888671875,2.5625,1.1875,-0.625,0.04736328125,0.1865234375,0.9794921875
58,1597652442781810,0.07904052734375,-0.06353759765625,-0.6246337890625,0.7742919921875,4.5,6.625,1.4375,-0.00244140625,0.2177734375,0.99365234375
59,1597652442794815,0.07977294921875,-0.06280517578125,-0.62451171875,0.7744140625,-0.8125,4.4375,0.75,-0.02587890625,0.216796875,0.9580078125
60,1597652442817889,0.07904052734375,-0.06243896484375,-0.62469482421875,0.7742919921875,-3.6875,-2.5,-1.0,-0.0234375,0.19140625,0.97900390625
61,1597652442841014,0.07879638671875,-0.0628662109375,-0.6246337890625,0.77435302734375,0.3125,-1.6875,0.625,0.0146484375,0.1962890625,0.9765625
62,1597652442862008,0.079345703125,-0.0635986328125,-0.62432861328125,0.77447509765625,5.625,-1.5,2.0,-0.00634765625,0.2001953125,0.98583984375
63,1597652442878005,0.08087158203125,-0.06396484375,-0.624267578125,0.77435302734375,5.6875,4.625,-0.8125,0.00927734375,0.2353515625,0.96875
64,1597652442901010,0.0809326171875,-0.06390380859375,-0.624267578125,0.77435302734375,0.25,-0.375,0.1875,-0.03271484375,0.19775390625,0.95263671875
65,1597652442922041,0.08099365234375,-0.064697265625,-0.6243896484375,0.77423095703125,3.3125,-4.0,-0.5,-0.0087890625,0.19921875,0.94677734375
66,1597652442938657,0.08111572265625,-0.065673828125,-0.6246337890625,0.77392578125,3.625,-5.1875,-1.75,-0.0146484375,0.2060546875,0.95947265625
67,1597652442960391,0.0810546875,-0.0667724609375,-0.6248779296875,0.77362060546875,3.4375,-5.375,-1.5,-0.0009765625,0.2041015625,0.94580078125
68,1597652442982386,0.08062744140625,-0.06768798828125,-0.62530517578125,0.77325439453125,2.5,-7.375,-2.5,-0.017578125,0.18603515625,0.94140625
69,1597652442998376,0.08050537109375,-0.06915283203125,-0.62591552734375,0.7725830078125,4.375,-8.6875,-4.0625,-0.013671875,0.21044921875,0.9453125
70,1597652443021140,0.0799560546875,-0.070556640625,-0.6270751953125,0.7716064453125,1.375,-11.4375,-7.3125,-0.02099609375,0.2216796875,0.94775390625
71,1597652443043358,0.0782470703125,-0.07232666015625,-0.62774658203125,0.7711181640625,0.0,-13.625,-3.5,0.02392578125,0.18994140625,0.94873046875
72,1597652443058356,0.07635498046875,-0.07415771484375,-0.628173828125,0.770751953125,-2.125,-14.5625,-1.75,0.025390625,0.203125,0.94140625
73,1597652443081362,0.07379150390625,-0.07574462890625,-0.62823486328125,0.77081298828125,-3.0,-15.6875,1.625,0.0302734375,0.1650390625,0.9462890625
74,1597652443102363,0.0716552734375,-0.078125,-0.628173828125,0.77081298828125,3.0625,-18.625,2.0,0.025390625,0.1455078125,0.95361328125
75,1597652443118558,0.07098388671875,-0.0814208984375,-0.6279296875,0.770751953125,8.9375,-17.25,2.6875,0.03271484375,0.21044921875,0.97021484375
76,1597652443140575,0.071044921875,-0.083740234375,-0.6279296875,0.7705078125,7.3125,-8.0625,-0.3125,0.06787109375,0.23046875,0.962890625
77,1597652443161583,0.06939697265625,-0.08447265625,-0.62786865234375,0.77056884765625,-6.375,-10.25,1.875,0.0244140625,0.2392578125,0.96826171875
78,1597652443178580,0.06585693359375,-0.0849609375,-0.6273193359375,0.77130126953125,-10.8125,-14.625,6.875,0.04150390625,0.15576171875,0.951171875
79,1597652443200774,0.06268310546875,-0.0863037109375,-0.62689208984375,0.77178955078125,-6.625,-17.875,5.6875,0.0439453125,0.1611328125,0.95458984375
80,1597652443221589,0.0615234375,-0.08892822265625,-0.62652587890625,0.7718505859375,6.3125,-14.1875,2.6875,0.07666015625,0.17919921875,0.966796875
81,1597652443237900,0.0638427734375,-0.09271240234375,-0.6263427734375,0.7713623046875,20.75,-8.875,-0.5625,0.06005859375,0.2626953125,0.97607421875
82,1597652443260406,0.06396484375,-0.09552001953125,-0.62579345703125,0.77142333984375,7.125,-13.9375,4.4375,0.03271484375,0.2666015625,0.95654296875
83,1597652443283448,0.0599365234375,-0.0968017578125,-0.6253662109375,0.77197265625,-15.25,-19.0625,6.625,0.080078125,0.236328125,0.93212890625
84,1597652443297617,0.05731201171875,-0.09808349609375,-0.62493896484375,0.7723388671875,-3.0,-10.4375,3.625,0.142578125,0.1513671875,0.97802734375
85,1597652443320445,0.05828857421875,-0.10009765625,-0.62469482421875,0.772216796875,10.5625,-3.375,0.625,0.1123046875,0.23095703125,0.9736328125
86,1597652443345163,0.05816650390625,-0.10015869140625,-0.62408447265625,0.77276611328125,-1.125,-0.125,4.5625,0.0810546875,0.2275390625,0.9736328125
87,1597652443357156,0.05517578125,-0.0997314453125,-0.6231689453125,0.77374267578125,-15.9375,-9.6875,9.5625,0.060546875,0.22412109375,0.95166015625
88,1597652443380635,0.05279541015625,-0.10052490234375,-0.6221923828125,0.77459716796875,-9.1875,-11.75,9.125,0.083984375,0.236328125,0.9951171875
89,1597652443403432,0.05145263671875,-0.10107421875,-0.62152099609375,0.775146484375,-3.625,-6.875,6.125,0.08935546875,0.2060546875,0.97509765625
90,1597652443417790,0.05029296875,-0.10174560546875,-0.62109375,0.77545166015625,-2.0,-9.0,4.125,0.06494140625,0.1982421875,1.0009765625
91,1597652443441336,0.04888916015625,-0.1025390625,-0.6209716796875,0.77557373046875,-6.4375,-9.4375,2.4375,0.08544921875,0.24951171875,0.98193359375
92,1597652443463348,0.047119140625,-0.10302734375,-0.62054443359375,0.77593994140625,-6.25,-8.9375,4.6875,0.0888671875,0.203125,0.96875
93,1597652443477344,0.04547119140625,-0.103759765625,-0.6201171875,0.77630615234375,-6.4375,-10.9375,4.8125,0.07861328125,0.23046875,1.001953125
94,1597652443500343,0.04473876953125,-0.10455322265625,-0.619873046875,0.7763671875,-1.6875,-7.375,2.25,0.083984375,0.2119140625,0.94189453125
95,1597652443525353,0.0416259765625,-0.10491943359375,-0.6197509765625,0.77667236328125,-11.25,-11.625,3.25,0.11865234375,0.17041015625,0.951171875
96,1597652443537516,0.03936767578125,-0.1060791015625,-0.61944580078125,0.77685546875,-2.9375,-10.3125,2.875,0.1533203125,0.1455078125,0.9541015625
97,1597652443561313,0.03955078125,-0.10772705078125,-0.61883544921875,0.777099609375,8.5625,-4.4375,3.25,0.1455078125,0.16845703125,0.96142578125
98,1597652443584329,0.04022216796875,-0.10943603515625,-0.61865234375,0.7769775390625,7.375,-3.875,0.25,0.13818359375,0.21630859375,0.94775390625
99,1597652443597992,0.04046630859375,-0.1094970703125,-0.61846923828125,0.777099609375,1.0,0.5,1.125,0.11962890625,0.208984375,0.98681640625
100,1597652443621321,0.04052734375,-0.10870361328125,-0.6185302734375,0.77716064453125,-3.625,3.625,-0.3125,0.1171875,0.20947265625,0.9794921875
101,1597652443643508,0.04046630859375,-0.108154296875,-0.6185302734375,0.7772216796875,-1.0,1.625,0.25,0.1123046875,0.18310546875,0.98779296875
