index,timestamp,orientation_x,orientation_y,orientation_z,orientation_w,gyroscope_x,gyroscope_y,gyroscope_z,acceleration_x,acceleration_y,acceleration_z
0,1597652452231821,0.046875,-0.11834716796875,-0.62493896484375,0.77020263671875,-0.25,4.0,0.0625,0.10546875,0.2158203125,0.96875
1,1597652452246994,0.046875,-0.1182861328125,-0.62493896484375,0.77020263671875,-0.375,0.8125,0.625,0.10498046875,0.208984375,0.9580078125
2,1597652452266304,0.0467529296875,-0.11871337890625,-0.6246337890625,0.7703857421875,0.6875,-2.875,2.3125,0.11474609375,0.220703125,0.94287109375
3,1597652452290065,0.046142578125,-0.1195068359375,-0.6241455078125,0.77069091796875,-1.0625,-4.625,3.8125,0.13232421875,0.23876953125,0.95947265625
4,1597652452306154,0.0458984375,-0.11956787109375,-0.62396240234375,0.7708740234375,-0.75,0.1875,1.4375,0.142578125,0.22021484375,0.96044921875
5,1597652452326087,0.04644775390625,-0.1195068359375,-0.6239013671875,0.77093505859375,3.9375,3.125,-0.375,0.13916015625,0.189453125,0.95068359375
6,1597652452348078,0.0482177734375,-0.1202392578125,-0.62353515625,0.77099609375,9.375,1.6875,1.375,0.10302734375,0.240234375,0.96337890625
7,1597652452366164,0.048095703125,-0.120849609375,-0.623291015625,0.7711181640625,-1.1875,-2.5625,1.9375,0.12548828125,0.259765625,0.9296875
8,1597652452386194,0.04730224609375,-0.12091064453125,-0.62298583984375,0.7713623046875,-3.3125,-1.625,2.25,0.1455078125,0.22314453125,0.9541015625
9,1597652452408162,0.047607421875,-0.12054443359375,-0.62274169921875,0.7716064453125,2.6875,4.125,1.0625,0.1455078125,0.18603515625,0.97119140625
10,1597652452426176,0.0499267578125,-0.12060546875,-0.6229248046875,0.77130126953125,12.0,6.625,-3.4375,0.10546875,0.203125,0.96533203125
11,1597652452447817,0.05206298828125,-0.12103271484375,-0.623046875,0.77099609375,10.625,4.125,-2.625,0.1015625,0.23486328125,0.95166015625
12,1597652452468914,0.05328369140625,-0.12158203125,-0.62274169921875,0.77105712890625,4.8125,0.875,1.5,0.09814453125,0.2666015625,0.9375
13,1597652452486910,0.05224609375,-0.12109375,-0.62255859375,0.7713623046875,-6.8125,-2.125,2.8125,0.10546875,0.23046875,0.93994140625
14,1597652452507912,0.0511474609375,-0.12030029296875,-0.6226806640625,0.771484375,-5.5,-0.125,-0.125,0.1240234375,0.19384765625,0.9599609375
15,1597652452528908,0.05169677734375,-0.1202392578125,-0.622802734375,0.7713623046875,3.6875,1.9375,-1.625,0.1181640625,0.201171875,0.9501953125
16,1597652452546906,0.0528564453125,-0.12060546875,-0.62274169921875,0.771240234375,5.5,1.6875,-0.4375,0.10595703125,0.24462890625,0.94775390625
17,1597652452567120,0.05316162109375,-0.12115478515625,-0.62249755859375,0.7713623046875,1.1875,-1.6875,1.8125,0.107421875,0.25537109375,0.9296875
18,1597652452589136,0.05224609375,-0.12091064453125,-0.62237548828125,0.77154541015625,-5.375,-2.125,1.625,0.119140625,0.2333984375,0.95068359375
19,1597652452606120,0.0523681640625,-0.12054443359375,-0.622314453125,0.77166748046875,0.75,2.5,0.1875,0.12744140625,0.208984375,0.9736328125
20,1597652452628124,0.0533447265625,-0.1202392578125,-0.62255859375,0.77142333984375,5.125,3.625,-2.5,0.10595703125,0.20556640625,0.9658203125
21,1597652452650584,0.0540771484375,-0.120361328125,-0.6224365234375,0.771484375,2.1875,1.8125,0.5,0.11181640625,0.248046875,0.947265625
22,1597652452667214,0.05462646484375,-0.12115478515625,-0.6219482421875,0.771728515625,2.4375,-0.9375,3.125,0.12060546875,0.27490234375,0.95361328125
23,1597652452689002,0.05401611328125,-0.120849609375,-0.62164306640625,0.77203369140625,-4.1875,0.0625,2.5625,0.12939453125,0.23974609375,0.95361328125
24,1597652452709111,0.05401611328125,-0.1204833984375,-0.62139892578125,0.77227783203125,-0.4375,3.1875,1.3125,0.1357421875,0.2197265625,0.97216796875
25,1597652452726142,0.0550537109375,-0.12054443359375,-0.62115478515625,0.77239990234375,5.5625,3.625,0.75,0.11767578125,0.2275390625,0.96923828125
26,1597652452747987,0.05633544921875,-0.12109375,-0.62060546875,0.77264404296875,7.0625,2.125,2.625,0.11376953125,0.24267578125,0.9384765625
27,1597652452768982,0.05682373046875,-0.12164306640625,-0.62030029296875,0.77276611328125,3.4375,-0.4375,1.875,0.11279296875,0.24658203125,0.943359375
28,1597652452786661,0.0574951171875,-0.12188720703125,-0.62030029296875,0.772705078125,3.8125,1.25,-0.6875,0.119140625,0.23828125,0.9560546875
29,1597652452809136,0.05865478515625,-0.1217041015625,-0.619873046875,0.77301025390625,6.4375,7.5,1.25,0.1455078125,0.21826171875,0.9794921875
30,1597652452828562,0.06146240234375,-0.12109375,-0.619873046875,0.7728271484375,12.9375,11.6875,-2.9375,0.09619140625,0.197265625,0.9326171875
31,1597652452846562,0.06427001953125,-0.12103271484375,-0.61956787109375,0.77288818359375,10.875,8.6875,0.25,0.08251953125,0.26953125,0.94580078125
32,1597652452868563,0.06451416015625,-0.1212158203125,-0.618896484375,0.77337646484375,-0.9375,-2.0,5.25,0.06201171875,0.27294921875,0.88916015625
33,1597652452888127,0.06329345703125,-0.12152099609375,-0.61871337890625,0.7735595703125,-3.0,-4.125,2.125,0.12451171875,0.2236328125,0.94580078125
34,1597652452906149,0.06439208984375,-0.12176513671875,-0.6187744140625,0.77337646484375,11.375,4.3125,-2.625,0.1318359375,0.1630859375,0.935546875
35,1597652452929520,0.06793212890625,-0.1236572265625,-0.61810302734375,0.7733154296875,23.5625,4.5,0.8125,0.10546875,0.24072265625,0.94287109375
36,1597652452948778,0.07086181640625,-0.1253662109375,-0.61688232421875,0.77374267578125,14.25,1.0,6.625,0.06494140625,0.33544921875,0.92333984375
37,1597652452971302,0.0701904296875,-0.12591552734375,-0.61572265625,0.774658203125,-1.5625,-3.3125,9.1875,0.10986328125,0.26904296875,0.93310546875
38,1597652452989014,0.0711669921875,-0.12481689453125,-0.61553955078125,0.77490234375,7.125,12.1875,-1.3125,0.16748046875,0.17236328125,0.9892578125
39,1597652453009205,0.075927734375,-0.1236572265625,-0.61517333984375,0.77490234375,20.0,21.6875,-2.375,0.091796875,0.2353515625,0.978515625
40,1597652453031041,0.07928466796875,-0.12384033203125,-0.61358642578125,0.77581787109375,7.8125,9.125,9.4375,0.044921875,0.392578125,0.92724609375
41,1597652453050020,0.07708740234375,-0.12274169921875,-0.61236572265625,0.77716064453125,-14.0625,-1.125,11.25,0.09765625,0.27294921875,0.9443359375
42,1597652453069033,0.07684326171875,-0.121337890625,-0.61187744140625,0.77777099609375,1.4375,11.1875,1.5625,0.17431640625,0.1650390625,0.97412109375
43,1597652453090684,0.08154296875,-0.1219482421875,-0.61083984375,0.77801513671875,22.5625,14.9375,2.5625,0.09228515625,0.2861328125,0.94091796875
44,1597652453108844,0.08349609375,-0.12225341796875,-0.60943603515625,0.7789306640625,6.0625,3.4375,9.5625,0.03759765625,0.330078125,0.9150390625
45,1597652453128681,0.08447265625,-0.12176513671875,-0.60906982421875,0.7791748046875,0.125,5.6875,1.6875,0.0830078125,0.310546875,0.939453125
46,1597652453151680,0.08428955078125,-0.12054443359375,-0.60906982421875,0.77935791015625,-5.8125,8.6875,-0.875,0.14404296875,0.29052734375,0.9658203125
47,1597652453169678,0.0859375,-0.1170654296875,-0.609130859375,0.7796630859375,0.25,22.25,-2.6875,0.09033203125,0.20751953125,0.98046875
48,1597652453190123,0.08544921875,-0.11572265625,-0.60870361328125,0.78021240234375,-10.75,-0.125,5.125,-0.0048828125,0.3056640625,0.87353515625
49,1597652453210972,0.08489990234375,-0.1162109375,-0.6083984375,0.78045654296875,1.5,0.1875,1.4375,0.1328125,0.23095703125,0.9296875
50,1597652453229276,0.0870361328125,-0.11639404296875,-0.60809326171875,0.78045654296875,9.5625,8.5625,-0.5,0.1064453125,0.29443359375,0.97314453125
51,1597652453249165,0.08917236328125,-0.1151123046875,-0.60821533203125,0.78033447265625,4.125,13.8125,-3.125,0.083984375,0.2958984375,0.9677734375
52,1597652453270981,0.08837890625,-0.11236572265625,-0.60797119140625,0.78094482421875,-14.9375,7.8125,3.0625,0.029296875,0.2880859375,0.91015625
53,1597652453289143,0.0880126953125,-0.11212158203125,-0.60784912109375,0.7811279296875,0.9375,-0.125,1.1875,0.06396484375,0.2138671875,0.92724609375
54,1597652453308169,0.09014892578125,-0.1141357421875,-0.6075439453125,0.7808837890625,15.5,1.0625,-0.75,0.1103515625,0.302734375,0.97412109375
55,1597652453331144,0.0919189453125,-0.1141357421875,-0.6077880859375,0.78045654296875,3.4375,6.1875,-3.5625,0.07080078125,0.345703125,0.95654296875
56,1597652453349165,0.0908203125,-0.11199951171875,-0.60784912109375,0.78082275390625,-14.1875,3.9375,1.25,0.033203125,0.2939453125,0.9267578125
57,1597652453369150,0.08868408203125,-0.110107421875,-0.60821533203125,0.78106689453125,-11.4375,-1.8125,0.0,0.0205078125,0.1884765625,0.9306640625
58,1597652453391303,0.08935546875,-0.11181640625,-0.6077880859375,0.78106689453125,10.0625,-5.3125,2.25,0.064453125,0.2578125,0.95703125
59,1597652453409149,0.092529296875,-0.114013671875,-0.6075439453125,0.78057861328125,20.1875,3.375,-2.0,0.099609375,0.318359375,0.974609375
60,1597652453430151,0.0950927734375,-0.1129150390625,-0.60791015625,0.7801513671875,4.0625,12.75,-4.75,0.0517578125,0.34033203125,0.9638671875
61,1597652453451156,0.09246826171875,-0.110595703125,-0.60821533203125,0.78057861328125,-18.625,-2.0,1.3125,0.009765625,0.24609375,0.91943359375
62,1597652453469151,0.0909423828125,-0.11041259765625,-0.6085205078125,0.780517578125,-1.75,-2.5,-1.9375,0.09130859375,0.1806640625,0.92724609375
63,1597652453490242,0.0927734375,-0.11187744140625,-0.6082763671875,0.7802734375,12.25,2.75,-0.9375,0.1064453125,0.29248046875,0.94580078125
64,1597652453511201,0.09423828125,-0.11199951171875,-0.60821533203125,0.7801513671875,5.9375,6.625,-1.4375,0.08837890625,0.294921875,0.927734375
65,1597652453529140,0.0946044921875,-0.1109619140625,-0.608154296875,0.78033447265625,-4.1875,4.75,0.375,0.03857421875,0.3076171875,0.939453125
66,1597652453550406,0.09393310546875,-0.111083984375,-0.60791015625,0.78057861328125,-0.6875,-2.125,2.3125,0.05859375,0.23828125,0.912109375
67,1597652453571148,0.0950927734375,-0.11199951171875,-0.6075439453125,0.78057861328125,8.8125,1.375,0.8125,0.08056640625,0.28076171875,0.9580078125
68,1597652453589153,0.09625244140625,-0.11199951171875,-0.6075439453125,0.78045654296875,3.0,3.5625,-1.0,0.05078125,0.31298828125,0.93310546875
69,1597652453610284,0.09564208984375,-0.1109619140625,-0.607666015625,0.780517578125,-6.6875,1.6875,-0.125,0.04345703125,0.279296875,0.923828125
70,1597652453631598,0.095458984375,-0.1109619140625,-0.60772705078125,0.78057861328125,1.375,-0.1875,-0.3125,0.0634765625,0.24072265625,0.93115234375
71,1597652453650151,0.09625244140625,-0.1112060546875,-0.6075439453125,0.780517578125,6.1875,3.125,-0.375,0.07470703125,0.26123046875,0.95849609375
72,1597652453670150,0.0982666015625,-0.111083984375,-0.60748291015625,0.7803955078125,8.125,7.875,-1.5625,0.0615234375,0.28857421875,0.93310546875
73,1597652453691248,0.09722900390625,-0.10968017578125,-0.6077880859375,0.78045654296875,-7.5625,0.5625,-1.0,0.01953125,0.2451171875,0.93115234375
74,1597652453709251,0.09716796875,-0.11029052734375,-0.60760498046875,0.780517578125,3.5,-1.125,1.0,0.07861328125,0.26123046875,0.96044921875
75,1597652453731644,0.09942626953125,-0.111083984375,-0.6072998046875,0.78033447265625,12.0625,5.4375,-0.625,0.0703125,0.30615234375,0.958984375
76,1597652453751532,0.100830078125,-0.1097412109375,-0.6075439453125,0.7801513671875,-2.0625,9.875,-3.0625,0.03271484375,0.330078125,0.91796875
77,1597652453769266,0.099365234375,-0.10833740234375,-0.60809326171875,0.7801513671875,-12.3125,-2.625,-1.25,-0.00341796875,0.2890625,0.93505859375
78,1597652453791278,0.0989990234375,-0.109375,-0.60797119140625,0.78009033203125,5.25,-1.8125,-0.375,0.11083984375,0.23095703125,0.93115234375
79,1597652453811276,0.10150146484375,-0.1104736328125,-0.60760498046875,0.77996826171875,14.1875,4.9375,-0.125,0.0625,0.3056640625,0.94482421875
80,1597652453829275,0.10223388671875,-0.109130859375,-0.6077880859375,0.7799072265625,-3.625,6.9375,-1.75,0.02392578125,0.318359375,0.92822265625
81,1597652453851253,0.1019287109375,-0.10821533203125,-0.6080322265625,0.77984619140625,-6.0625,0.9375,-0.8125,0.0126953125,0.2978515625,0.91552734375
82,1597652453871436,0.10101318359375,-0.10833740234375,-0.6082763671875,0.77978515625,-1.8125,-3.125,-1.1875,0.05810546875,0.25830078125,0.9443359375
83,1597652453889260,0.1014404296875,-0.1090087890625,-0.60821533203125,0.7796630859375,5.9375,-0.125,-0.4375,0.068359375,0.263671875,0.955078125
84,1597652453912255,0.10174560546875,-0.10870361328125,-0.6082763671875,0.77960205078125,-0.5625,2.25,-0.875,0.04345703125,0.29736328125,0.9404296875
85,1597652453931258,0.10101318359375,-0.10833740234375,-0.60870361328125,0.77947998046875,-6.25,-2.6875,-1.75,0.021484375,0.29638671875,0.91552734375
86,1597652453949682,0.1007080078125,-0.1087646484375,-0.60906982421875,0.77911376953125,1.25,-1.875,-2.9375,0.06787109375,0.263671875,0.93359375
87,1597652453971261,0.10113525390625,-0.10906982421875,-0.60894775390625,0.7791748046875,3.4375,2.125,0.0,0.0751953125,0.28857421875,0.9697265625
88,1597652453991425,0.1019287109375,-0.10784912109375,-0.6090087890625,0.77911376953125,0.25,7.5625,-1.5625,0.03662109375,0.27734375,0.95556640625
89,1597652454009783,0.1026611328125,-0.10693359375,-0.60943603515625,0.77886962890625,-2.0625,3.8125,-2.9375,0.00390625,0.3203125,0.94775390625
90,1597652454031653,0.10174560546875,-0.1064453125,-0.6094970703125,0.77899169921875,-5.6875,-1.1875,0.5625,0.03662109375,0.2685546875,0.92236328125
91,1597652454051675,0.10125732421875,-0.106689453125,-0.609375,0.77911376953125,-1.0,-2.8125,1.125,0.0390625,0.27587890625,0.93212890625
92,1597652454069436,0.10198974609375,-0.107666015625,-0.60968017578125,0.77862548828125,4.1875,-2.5,-2.75,0.03955078125,0.326171875,0.94140625
93,1597652454091787,0.1021728515625,-0.1075439453125,-0.6109619140625,0.77764892578125,-4.875,-1.75,-8.75,0.01806640625,0.3515625,0.92578125
94,1597652454111564,0.09979248046875,-0.10589599609375,-0.61358642578125,0.776123046875,-20.75,-10.5,-14.0625,-0.06494140625,0.32763671875,0.916015625
95,1597652454134203,0.0914306640625,-0.104736328125,-0.61676025390625,0.7747802734375,-35.125,-34.3125,-12.8125,-0.0673828125,0.1259765625,0.83642578125
96,1597652454151204,0.081787109375,-0.10888671875,-0.618408203125,0.77398681640625,-23.875,-51.0625,-3.0625,0.10205078125,0.16455078125,0.88037109375
97,1597652454172615,0.0771484375,-0.11492919921875,-0.6190185546875,0.7730712890625,6.875,-35.6875,-3.0625,0.2041015625,0.1630859375,0.9267578125
98,1597652454193741,0.076416015625,-0.12017822265625,-0.61883544921875,0.77252197265625,15.25,-23.5,0.9375,0.125,0.26416015625,0.92431640625
99,1597652454211984,0.07562255859375,-0.12371826171875,-0.61932373046875,0.7716064453125,6.75,-18.4375,-3.625,0.10888671875,0.30517578125,0.9580078125
100,1597652454231223,0.07391357421875,-0.12506103515625,-0.62030029296875,0.770751953125,-5.8125,-11.4375,-5.75,0.12890625,0.3115234375,0.96923828125
101,1597652454254214,0.07147216796875,-0.12457275390625,-0.62139892578125,0.77020263671875,-14.875,-7.3125,-4.9375,0.103515625,0.291015625,0.9658203125
