index,timestamp,orientation_x,orientation_y,orientation_z,orientation_w,gyroscope_x,gyroscope_y,gyroscope_z,acceleration_x,acceleration_y,acceleration_z
0,1597652705188966,-0.47802734375,0.21234130859375,-0.5767822265625,0.62744140625,7.5,-0.5625,-0.5625,0.2900390625,-0.88427734375,0.48388671875
1,1597652705204411,-0.4775390625,0.2117919921875,-0.576904296875,0.6279296875,4.1875,-0.625,0.125,0.287109375,-0.8583984375,0.470703125
2,1597652705227188,-0.47784423828125,0.2117919921875,-0.57672119140625,0.6279296875,-0.8125,-1.4375,0.5,0.29248046875,-0.857421875,0.45361328125
3,1597652705248960,-0.47833251953125,0.21185302734375,-0.576416015625,0.62774658203125,-2.625,-1.75,0.5,0.2998046875,-0.8701171875,0.4638671875
4,1597652705264224,-0.478515625,0.21185302734375,-0.57623291015625,0.6278076171875,-1.125,-1.0625,1.0,0.302734375,-0.86962890625,0.46728515625
5,1597652705294094,-0.47821044921875,0.21197509765625,-0.576171875,0.6280517578125,0.5625,0.5625,1.0,0.28515625,-0.8779296875,0.484375
6,1597652705309088,-0.4775390625,0.21221923828125,-0.57586669921875,0.62872314453125,1.0625,-1.0,2.0625,0.2451171875,-0.88720703125,0.505859375
7,1597652705324201,-0.4779052734375,0.21197509765625,-0.5751953125,0.62921142578125,-0.625,-5.25,1.875,0.28076171875,-0.88427734375,0.4873046875
8,1597652705347089,-0.47930908203125,0.21142578125,-0.5745849609375,0.62884521484375,-5.375,-6.625,0.0,0.3291015625,-0.86279296875,0.46630859375
9,1597652705369090,-0.48052978515625,0.21185302734375,-0.57373046875,0.6285400390625,-9.25,-5.3125,1.4375,0.28955078125,-0.880859375,0.49267578125
10,1597652705390374,-0.48297119140625,0.21258544921875,-0.57147216796875,0.62847900390625,-18.75,-14.75,3.625,0.240234375,-0.88720703125,0.5380859375
11,1597652705407206,-0.4866943359375,0.21319580078125,-0.56842041015625,0.628173828125,-20.75,-18.3125,7.25,0.2998046875,-0.8876953125,0.4638671875
12,1597652705429207,-0.4910888671875,0.21356201171875,-0.566162109375,0.62664794921875,-23.375,-16.5625,0.25,0.3271484375,-0.9013671875,0.43408203125
13,1597652705450801,-0.49481201171875,0.21380615234375,-0.56439208984375,0.625244140625,-16.375,-12.1875,-0.375,0.3330078125,-0.90673828125,0.376953125
14,1597652705467359,-0.49560546875,0.21343994140625,-0.5635986328125,0.62542724609375,0.5,-5.25,2.25,0.322265625,-0.91015625,0.3994140625
15,1597652705489133,-0.4954833984375,0.212890625,-0.56268310546875,0.6265869140625,5.9375,-6.0,3.3125,0.26953125,-0.90283203125,0.41455078125
16,1597652705510987,-0.49578857421875,0.21307373046875,-0.56109619140625,0.627685546875,3.125,-5.8125,7.5,0.27490234375,-0.9072265625,0.37548828125
17,1597652705527239,-0.4952392578125,0.2127685546875,-0.55950927734375,0.629638671875,8.875,-5.125,13.0,0.3212890625,-0.9296875,0.41552734375
18,1597652705549600,-0.49310302734375,0.2139892578125,-0.55804443359375,0.63214111328125,9.375,4.6875,20.125,0.3251953125,-0.95068359375,0.4580078125
19,1597652705571872,-0.491943359375,0.218505859375,-0.55523681640625,0.63397216796875,-10.4375,9.8125,31.1875,0.3017578125,-0.9208984375,0.4765625
20,1597652705586885,-0.4915771484375,0.22454833984375,-0.55078125,0.63604736328125,-18.0,6.0625,36.5,0.228515625,-0.97607421875,0.47021484375
21,1597652705608892,-0.49078369140625,0.2296142578125,-0.5458984375,0.63909912109375,-9.375,0.9375,37.25,0.19482421875,-1.0380859375,0.46630859375
22,1597652705629885,-0.4881591796875,0.23272705078125,-0.54217529296875,0.64312744140625,9.1875,3.5625,35.75,0.2373046875,-1.0703125,0.45849609375
23,1597652705646878,-0.48193359375,0.2335205078125,-0.541015625,0.64849853515625,34.4375,11.9375,32.0,0.25830078125,-1.0166015625,0.482421875
24,1597652705669312,-0.4710693359375,0.2318115234375,-0.5418701171875,0.65631103515625,62.0,18.3125,32.125,0.25146484375,-0.978515625,0.6103515625
25,1597652705689784,-0.4647216796875,0.2354736328125,-0.539794921875,0.6612548828125,27.1875,17.4375,32.0,0.0888671875,-1.1064453125,0.50927734375
26,1597652705706784,-0.45770263671875,0.24053955078125,-0.53997802734375,0.66412353515625,23.875,30.0,14.75,0.00439453125,-1.3232421875,0.626953125
27,1597652705728785,-0.450439453125,0.2421875,-0.54852294921875,0.6614990234375,34.5625,39.0,-57.4375,-0.30322265625,-1.0283203125,0.4462890625
28,1597652705749859,-0.44580078125,0.22662353515625,-0.564453125,0.65673828125,74.5625,2.0625,-110.875,-0.00341796875,-0.498046875,0.423828125
29,1597652705765885,-0.4462890625,0.20867919921875,-0.5765380859375,0.65185546875,51.5625,-15.6875,-77.1875,0.564453125,-0.0986328125,0.19921875
30,1597652705789606,-0.4539794921875,0.20458984375,-0.58013916015625,0.64459228515625,-36.75,1.4375,-14.5,0.88427734375,-0.45654296875,0.40673828125
31,1597652705810786,-0.46337890625,0.2142333984375,-0.57769775390625,0.63690185546875,-83.0,13.1875,4.25,0.3515625,-0.75048828125,0.314453125
32,1597652705832788,-0.46978759765625,0.22210693359375,-0.57452392578125,0.63238525390625,-58.5,3.6875,4.1875,0.201171875,-0.95361328125,0.40283203125
33,1597652705849810,-0.47027587890625,0.22406005859375,-0.57330322265625,0.63238525390625,-11.625,1.125,8.0,0.2734375,-0.96923828125,0.548828125
34,1597652705872221,-0.46917724609375,0.225830078125,-0.57293701171875,0.6329345703125,-3.5625,4.5625,3.625,0.17138671875,-0.90576171875,0.53076171875
35,1597652705886386,-0.47015380859375,0.2276611328125,-0.5732421875,0.63128662109375,-15.875,2.625,-7.8125,0.18212890625,-0.90185546875,0.51708984375
36,1597652705909640,-0.472412109375,0.227783203125,-0.57373046875,0.62908935546875,-12.625,-1.1875,-9.6875,0.2841796875,-0.83837890625,0.4228515625
37,1597652705932382,-0.472900390625,0.22589111328125,-0.57513427734375,0.628173828125,2.25,-1.1875,-8.5,0.34619140625,-0.85302734375,0.474609375
38,1597652705946381,-0.47113037109375,0.2247314453125,-0.575927734375,0.629150390625,9.0,3.5625,4.0625,0.34326171875,-0.869140625,0.541015625
39,1597652705969380,-0.47003173828125,0.225341796875,-0.574951171875,0.63067626953125,4.5625,0.5,10.75,0.263671875,-0.92822265625,0.49951171875
40,1597652705992160,-0.46923828125,0.2247314453125,-0.57452392578125,0.6318359375,10.625,-3.0,1.25,0.21875,-0.9345703125,0.451171875
41,1597652706007065,-0.4676513671875,0.2227783203125,-0.575439453125,0.6329345703125,16.0625,-0.5,-2.5625,0.24755859375,-0.7978515625,0.4375
42,1597652706030086,-0.46722412109375,0.22259521484375,-0.576416015625,0.63238525390625,-1.875,3.25,-4.3125,0.2646484375,-0.83056640625,0.52001953125
43,1597652706051879,-0.46795654296875,0.2244873046875,-0.576171875,0.63140869140625,-13.0625,4.1875,0.5625,0.2568359375,-0.908203125,0.51025390625
44,1597652706067879,-0.46929931640625,0.22540283203125,-0.57586669921875,0.63037109375,-8.25,-1.3125,-4.0,0.2451171875,-0.95166015625,0.46630859375
45,1597652706089828,-0.46875,0.22344970703125,-0.576416015625,0.63092041015625,13.8125,-2.6875,-3.375,0.28662109375,-0.8623046875,0.41357421875
46,1597652706111835,-0.4681396484375,0.222900390625,-0.5775146484375,0.630615234375,1.375,4.3125,-2.3125,0.28515625,-0.75341796875,0.46435546875
47,1597652706132902,-0.469970703125,0.22705078125,-0.57672119140625,0.62841796875,-32.4375,8.375,5.3125,0.26318359375,-0.830078125,0.525390625
48,1597652706149920,-0.47381591796875,0.23284912109375,-0.574462890625,0.62548828125,-41.125,3.75,3.1875,0.20849609375,-1.033203125,0.48876953125
49,1597652706171826,-0.47467041015625,0.23388671875,-0.57440185546875,0.62457275390625,-5.8125,1.125,-4.5,0.236328125,-0.998046875,0.45263671875
50,1597652706193143,-0.4722900390625,0.2318115234375,-0.576416015625,0.62530517578125,18.4375,4.625,-6.5,0.26611328125,-0.8583984375,0.4765625
51,1597652706209707,-0.47113037109375,0.23150634765625,-0.57733154296875,0.62542724609375,2.25,4.375,-1.375,0.24560546875,-0.77099609375,0.47265625
52,1597652706231705,-0.47283935546875,0.2335205078125,-0.57666015625,0.6240234375,-18.1875,1.8125,1.8125,0.27197265625,-0.8720703125,0.46142578125
53,1597652706252718,-0.47412109375,0.23529052734375,-0.57568359375,0.623291015625,-10.875,0.875,3.5,0.267578125,-0.96435546875,0.4462890625
54,1597652706270099,-0.47314453125,0.235107421875,-0.57598876953125,0.623779296875,6.4375,3.3125,2.0,0.287109375,-0.9375,0.470703125
55,1597652706292059,-0.4718017578125,0.235107421875,-0.5758056640625,0.625,12.25,-0.75,-2.0625,0.09912109375,-0.82080078125,0.349609375
56,1597652706306511,-0.4747314453125,0.234130859375,-0.57464599609375,0.6241455078125,-3.6875,-9.5,1.5625,0.34375,-0.802734375,0.283203125
57,1597652706329507,-0.47430419921875,0.238525390625,-0.5743408203125,0.62310791015625,-9.625,13.0,-2.1875,0.06689453125,-0.935546875,0.36328125
58,1597652706352511,-0.47076416015625,0.24261474609375,-0.5740966796875,0.62451171875,-17.8125,6.25,-1.875,-0.07470703125,-1.12255859375,0.9013671875
59,1597652706366705,-0.47039794921875,0.24139404296875,-0.5745849609375,0.624755859375,-8.1875,-2.25,4.625,0.38134765625,-0.88916015625,0.69287109375
60,1597652706389631,-0.4744873046875,0.238037109375,-0.574951171875,0.62261962890625,3.0,-0.375,11.8125,0.75439453125,-0.62841796875,0.12255859375
61,1597652706411996,-0.477783203125,0.23785400390625,-0.574951171875,0.62017822265625,4.0,7.8125,5.875,0.52978515625,-0.7333984375,0.00341796875
62,1597652706432630,-0.47650146484375,0.24310302734375,-0.57366943359375,0.62030029296875,-6.125,11.1875,0.75,-0.05029296875,-1.01220703125,0.365234375
63,1597652706449636,-0.47161865234375,0.24798583984375,-0.572509765625,0.62310791015625,-9.3125,4.25,-2.3125,-0.2705078125,-1.15283203125,0.8369140625
64,1597652706471846,-0.46868896484375,0.24822998046875,-0.57220458984375,0.62554931640625,-4.0625,-4.5,3.4375,0.0927734375,-1.015625,0.8349609375
65,1597652706492529,-0.4700927734375,0.24383544921875,-0.57275390625,0.62567138671875,9.1875,-6.0625,10.4375,0.62548828125,-0.75537109375,0.400390625
66,1597652706509525,-0.4742431640625,0.240234375,-0.57330322265625,0.62353515625,12.5,-1.1875,6.1875,0.6884765625,-0.65625,-0.009765625
67,1597652706532225,-0.475830078125,0.2415771484375,-0.57281494140625,0.6221923828125,3.25,4.5625,-2.5625,0.22216796875,-0.85498046875,0.1337890625
68,1597652706552526,-0.47198486328125,0.24591064453125,-0.57208251953125,0.62408447265625,-3.5625,5.9375,-5.3125,-0.21826171875,-1.08203125,0.65380859375
69,1597652706569705,-0.47027587890625,0.24774169921875,-0.5706787109375,0.62591552734375,-4.25,-4.8125,1.4375,-0.01806640625,-0.99609375,0.61572265625
70,1597652706592047,-0.47015380859375,0.24786376953125,-0.57061767578125,0.62603759765625,-0.375,-0.625,0.1875,0.14599609375,-0.88427734375,0.443359375
71,1597652706613628,-0.47027587890625,0.24847412109375,-0.57025146484375,0.62603759765625,-2.0,0.5625,1.75,0.2255859375,-0.927734375,0.447265625
72,1597652706629536,-0.47021484375,0.24847412109375,-0.5703125,0.62603759765625,0.5625,0.4375,0.625,0.2255859375,-0.890625,0.46435546875
73,1597652706651671,-0.47039794921875,0.2486572265625,-0.57012939453125,0.6259765625,-2.9375,0.375,1.9375,0.25244140625,-0.8798828125,0.455078125
74,1597652706672542,-0.47088623046875,0.2493896484375,-0.56951904296875,0.6258544921875,-6.125,-0.25,4.4375,0.2451171875,-0.876953125,0.44677734375
75,1597652706689787,-0.471435546875,0.25042724609375,-0.56878662109375,0.62567138671875,-7.6875,0.8125,5.6875,0.2490234375,-0.87353515625,0.44189453125
76,1597652706712008,-0.4722900390625,0.25189208984375,-0.56793212890625,0.625244140625,-11.1875,1.75,6.5625,0.244140625,-0.845703125,0.42578125
77,1597652706732783,-0.4737548828125,0.25433349609375,-0.56646728515625,0.62445068359375,-19.625,1.5625,9.5,0.244140625,-0.81884765625,0.42724609375
78,1597652706748774,-0.4769287109375,0.2581787109375,-0.56396484375,0.62274169921875,-31.5625,0.125,10.9375,0.23291015625,-0.849609375,0.384765625
79,1597652706771952,-0.48065185546875,0.26220703125,-0.560791015625,0.62109375,-32.875,-2.9375,12.125,0.2314453125,-0.92138671875,0.3740234375
80,1597652706793199,-0.4835205078125,0.26544189453125,-0.5582275390625,0.61981201171875,-25.1875,-2.0625,9.875,0.22607421875,-0.94091796875,0.3662109375
81,1597652706809024,-0.48480224609375,0.2664794921875,-0.55645751953125,0.61993408203125,-8.5,-5.8125,5.875,0.19140625,-0.9384765625,0.37451171875
82,1597652706832910,-0.48541259765625,0.26617431640625,-0.5546875,0.6212158203125,0.1875,-10.375,7.625,0.201171875,-0.94091796875,0.39892578125
83,1597652706854027,-0.48541259765625,0.26513671875,-0.5528564453125,0.62322998046875,4.3125,-12.0625,10.0,0.21826171875,-0.94189453125,0.4306640625
84,1597652706868687,-0.48602294921875,0.2646484375,-0.55145263671875,0.62420654296875,-1.875,-9.6875,5.9375,0.20703125,-0.89697265625,0.41552734375
85,1597652706891496,-0.4876708984375,0.26385498046875,-0.54974365234375,0.62481689453125,-2.8125,-13.5625,2.1875,0.1982421875,-0.9482421875,0.38134765625
86,1597652706914497,-0.48822021484375,0.2618408203125,-0.548583984375,0.626220703125,4.625,-13.1875,6.0625,0.28076171875,-0.94384765625,0.43310546875
87,1597652706929584,-0.48736572265625,0.2593994140625,-0.5479736328125,0.62841796875,13.5625,-10.8125,5.3125,0.2392578125,-0.91748046875,0.43798828125
88,1597652706951516,-0.48687744140625,0.25732421875,-0.547119140625,0.63043212890625,10.5625,-12.6875,2.6875,0.18115234375,-0.88818359375,0.4228515625
89,1597652706974489,-0.4881591796875,0.25555419921875,-0.54638671875,0.63079833984375,1.625,-13.625,-5.0,0.18310546875,-0.916015625,0.3896484375
90,1597652706988996,-0.48956298828125,0.25360107421875,-0.54638671875,0.6304931640625,0.25,-11.375,-9.5625,0.21142578125,-0.951171875,0.41162109375
91,1597652707012136,-0.490234375,0.25152587890625,-0.546875,0.63031005859375,3.3125,-8.75,-10.125,0.2158203125,-0.9345703125,0.42919921875
92,1597652707034609,-0.4915771484375,0.24969482421875,-0.54754638671875,0.6295166015625,-2.25,-9.0,-13.75,0.19921875,-0.9052734375,0.4248046875
93,1597652707055984,-0.49359130859375,0.247802734375,-0.54833984375,0.6279296875,-7.125,-9.4375,-16.25,0.232421875,-0.91552734375,0.4375
94,1597652707071928,-0.49578857421875,0.2457275390625,-0.54937744140625,0.6260986328125,-6.5625,-8.6875,-17.5625,0.26318359375,-0.93017578125,0.43212890625
95,1597652707094276,-0.4974365234375,0.24346923828125,-0.55029296875,0.62481689453125,-3.0625,-9.75,-16.9375,0.23779296875,-0.92822265625,0.43115234375
96,1597652707115368,-0.4990234375,0.2412109375,-0.55084228515625,0.6240234375,-0.75,-11.0,-14.125,0.2412109375,-0.91845703125,0.40625
97,1597652707132082,-0.50030517578125,0.23883056640625,-0.55169677734375,0.6231689453125,2.375,-8.625,-13.75,0.27880859375,-0.9462890625,0.3994140625
98,1597652707154091,-0.50140380859375,0.2369384765625,-0.55255126953125,0.62225341796875,1.875,-5.8125,-12.5625,0.283203125,-0.94873046875,0.38916015625
99,1597652707169088,-0.5020751953125,0.2349853515625,-0.55377197265625,0.621337890625,3.125,-3.875,-12.5,0.29345703125,-0.919921875,0.39453125
100,1597652707192182,-0.5030517578125,0.2335205078125,-0.55499267578125,0.62005615234375,-1.5625,-3.25,-13.6875,0.287109375,-0.91748046875,0.4111328125
101,1597652707214396,-0.5035400390625,0.23272705078125,-0.55609130859375,0.618896484375,-2.9375,-1.1875,-12.6875,0.263671875,-0.97705078125,0.455078125
