index,timestamp,orientation_x,orientation_y,orientation_z,orientation_w,gyroscope_x,gyroscope_y,gyroscope_z,acceleration_x,acceleration_y,acceleration_z
0,1597652668012202,-0.47198486328125,0.2149658203125,-0.54327392578125,0.66021728515625,-0.75,0.125,-0.4375,0.22900390625,-0.89013671875,0.47412109375
1,1597652668027235,-0.47198486328125,0.2149658203125,-0.54327392578125,0.66021728515625,-0.9375,0.0,-0.25,0.236328125,-0.8857421875,0.47607421875
2,1597652668050274,-0.47198486328125,0.2149658203125,-0.54327392578125,0.66021728515625,-0.1875,-0.3125,-0.1875,0.22900390625,-0.88720703125,0.47412109375
3,1597652668072231,-0.47198486328125,0.21502685546875,-0.543212890625,0.66021728515625,0.75,0.0625,-0.3125,0.22998046875,-0.89453125,0.47705078125
4,1597652668086245,-0.47198486328125,0.21502685546875,-0.543212890625,0.6602783203125,-0.3125,0.125,-0.125,0.22119140625,-0.89697265625,0.478515625
5,1597652668109235,-0.47198486328125,0.215087890625,-0.543212890625,0.6602783203125,-1.0,0.0625,-0.4375,0.23046875,-0.88623046875,0.47265625
6,1597652668132400,-0.47222900390625,0.21514892578125,-0.54315185546875,0.6600341796875,-1.6875,-0.125,-0.3125,0.2421875,-0.88671875,0.47216796875
7,1597652668146403,-0.4722900390625,0.21514892578125,-0.54315185546875,0.6600341796875,-0.9375,-0.375,0.3125,0.2373046875,-0.89111328125,0.47216796875
8,1597652668169401,-0.4722900390625,0.2152099609375,-0.54315185546875,0.6600341796875,0.3125,0.9375,-0.5,0.228515625,-0.9013671875,0.47607421875
9,1597652668192608,-0.47222900390625,0.2152099609375,-0.54315185546875,0.6600341796875,0.75,0.875,-0.5,0.22802734375,-0.8837890625,0.478515625
10,1597652668206430,-0.47222900390625,0.2152099609375,-0.54315185546875,0.6600341796875,-0.4375,0.375,0.125,0.22802734375,-0.88134765625,0.4794921875
11,1597652668229429,-0.472412109375,0.215576171875,-0.54296875,0.659912109375,-2.25,0.0625,0.125,0.22607421875,-0.89599609375,0.47998046875
12,1597652668252404,-0.4725341796875,0.2156982421875,-0.54296875,0.65985107421875,-1.125,0.0,-0.3125,0.23486328125,-0.89892578125,0.48046875
13,1597652668266420,-0.4725341796875,0.2156982421875,-0.54296875,0.65985107421875,0.25,0.25,-0.5625,0.24169921875,-0.89111328125,0.4736328125
14,1597652668289575,-0.4725341796875,0.2156982421875,-0.54296875,0.65985107421875,0.5625,-0.3125,-0.625,0.2392578125,-0.88720703125,0.4755859375
15,1597652668312409,-0.4725341796875,0.2156982421875,-0.54296875,0.65985107421875,0.5625,-0.0625,-0.0625,0.23486328125,-0.88427734375,0.47412109375
16,1597652668326402,-0.4725341796875,0.2156982421875,-0.54296875,0.65985107421875,-0.25,0.1875,0.3125,0.2275390625,-0.8916015625,0.47802734375
17,1597652668349406,-0.47265625,0.216064453125,-0.5428466796875,0.6597900390625,-1.75,-0.0625,-0.1875,0.21826171875,-0.90283203125,0.48095703125
18,1597652668372397,-0.47265625,0.216064453125,-0.54278564453125,0.6597900390625,-0.8125,-0.25,-0.4375,0.22900390625,-0.89697265625,0.47412109375
19,1597652668386434,-0.47265625,0.216064453125,-0.54278564453125,0.65972900390625,0.5625,-0.6875,-0.25,0.240234375,-0.88671875,0.47021484375
20,1597652668409615,-0.47265625,0.21600341796875,-0.5428466796875,0.65972900390625,0.625,-0.375,-0.0625,0.244140625,-0.88134765625,0.4716796875
21,1597652668431887,-0.47271728515625,0.21600341796875,-0.5428466796875,0.65972900390625,0.75,-0.0625,0.3125,0.23779296875,-0.88330078125,0.4716796875
22,1597652668453704,-0.47271728515625,0.216064453125,-0.54278564453125,0.65972900390625,0.0625,0.125,0.25,0.232421875,-0.89306640625,0.47265625
23,1597652668470322,-0.47271728515625,0.216064453125,-0.54278564453125,0.65972900390625,-0.875,0.0,-0.1875,0.2294921875,-0.89697265625,0.47412109375
24,1597652668491699,-0.47265625,0.216064453125,-0.54278564453125,0.65972900390625,0.0,0.0625,0.1875,0.22900390625,-0.884765625,0.48046875
25,1597652668513688,-0.47265625,0.216064453125,-0.54278564453125,0.6597900390625,-0.1875,-0.1875,0.875,0.2197265625,-0.8896484375,0.48779296875
26,1597652668529493,-0.47259521484375,0.21612548828125,-0.54278564453125,0.6597900390625,-0.3125,-0.875,0.5625,0.21875,-0.91455078125,0.48046875
27,1597652668552488,-0.47235107421875,0.215576171875,-0.54278564453125,0.66015625,3.9375,-1.625,-0.125,0.2412109375,-0.90673828125,0.48486328125
28,1597652668573488,-0.47198486328125,0.2147216796875,-0.54296875,0.6605224609375,4.75,-1.6875,-0.4375,0.25,-0.88134765625,0.48046875
29,1597652668589700,-0.4722900390625,0.2144775390625,-0.542724609375,0.66064453125,-1.25,-3.125,-0.1875,0.2314453125,-0.88134765625,0.48828125
30,1597652668612502,-0.47283935546875,0.2149658203125,-0.5419921875,0.66064453125,-5.4375,-3.1875,0.9375,0.19384765625,-0.8876953125,0.4912109375
31,1597652668633585,-0.47430419921875,0.215576171875,-0.5411376953125,0.66009521484375,-10.625,-5.125,-0.25,0.2080078125,-0.88037109375,0.47900390625
32,1597652668650493,-0.476806640625,0.21636962890625,-0.54022216796875,0.6588134765625,-18.0,-5.5,-0.625,0.25048828125,-0.8837890625,0.48583984375
33,1597652668672633,-0.480224609375,0.21722412109375,-0.53863525390625,0.65728759765625,-25.9375,-10.375,0.5,0.255859375,-0.8876953125,0.5224609375
34,1597652668693494,-0.48321533203125,0.2188720703125,-0.5362548828125,0.65655517578125,-24.25,-9.5,7.1875,0.23583984375,-0.90380859375,0.501953125
35,1597652668709494,-0.4854736328125,0.22064208984375,-0.5338134765625,0.65625,-17.0,-6.75,10.125,0.24658203125,-0.94921875,0.4560546875
36,1597652668731971,-0.4853515625,0.22039794921875,-0.5330810546875,0.65704345703125,2.9375,-2.9375,5.5625,0.25341796875,-0.935546875,0.45458984375
37,1597652668753187,-0.484375,0.2200927734375,-0.5325927734375,0.65826416015625,7.5,-3.0625,1.625,0.166015625,-0.90185546875,0.4462890625
38,1597652668769811,-0.48565673828125,0.2218017578125,-0.531005859375,0.65802001953125,-7.375,-3.0625,2.5625,0.142578125,-0.9140625,0.36279296875
39,1597652668791807,-0.486572265625,0.22216796875,-0.52996826171875,0.65802001953125,-0.0625,-4.1875,1.125,0.201171875,-0.97021484375,0.3779296875
40,1597652668813591,-0.48565673828125,0.2216796875,-0.53009033203125,0.65875244140625,10.5,1.75,2.4375,0.263671875,-0.974609375,0.4208984375
41,1597652668829593,-0.48382568359375,0.2222900390625,-0.531005859375,0.6591796875,6.75,11.5,5.8125,0.29541015625,-0.921875,0.4697265625
42,1597652668851584,-0.4830322265625,0.224853515625,-0.53070068359375,0.6591796875,-5.375,11.4375,9.4375,0.22216796875,-0.89013671875,0.43994140625
43,1597652668872735,-0.48388671875,0.22882080078125,-0.5289306640625,0.6585693359375,-20.125,6.75,12.125,0.18017578125,-0.92138671875,0.45947265625
44,1597652668888822,-0.48486328125,0.2322998046875,-0.52703857421875,0.65814208984375,-17.5,5.0,13.625,0.21337890625,-0.9609375,0.4521484375
45,1597652668911589,-0.48431396484375,0.23468017578125,-0.5257568359375,0.65875244140625,-4.5,6.0625,13.3125,0.2041015625,-0.9619140625,0.44873046875
46,1597652668934779,-0.48272705078125,0.23638916015625,-0.52496337890625,0.65997314453125,3.3125,7.25,12.8125,0.19580078125,-0.93896484375,0.443359375
47,1597652668948784,-0.48077392578125,0.238037109375,-0.5242919921875,0.6612548828125,4.0,8.1875,13.375,0.19189453125,-0.919921875,0.4541015625
48,1597652668971780,-0.47943115234375,0.23980712890625,-0.523193359375,0.6624755859375,1.4375,5.875,14.0,0.18505859375,-0.91552734375,0.4404296875
49,1597652668995043,-0.478515625,0.2415771484375,-0.52215576171875,0.663330078125,-0.875,5.9375,13.5,0.19775390625,-0.91650390625,0.43701171875
50,1597652669009783,-0.47735595703125,0.24322509765625,-0.521484375,0.6640625,0.8125,7.0625,11.5625,0.19091796875,-0.92822265625,0.44140625
51,1597652669031924,-0.47576904296875,0.2447509765625,-0.52105712890625,0.6650390625,3.875,8.125,11.0625,0.1826171875,-0.927734375,0.44189453125
52,1597652669054784,-0.47442626953125,0.2462158203125,-0.52081298828125,0.6656494140625,2.375,8.0,8.8125,0.17236328125,-0.916015625,0.4365234375
53,1597652669068986,-0.47344970703125,0.247802734375,-0.520751953125,0.665771484375,-0.5625,8.6875,6.3125,0.1669921875,-0.90869140625,0.4384765625
54,1597652669091787,-0.472900390625,0.24951171875,-0.5208740234375,0.66546630859375,-3.75,9.0625,4.125,0.1640625,-0.90380859375,0.43310546875
55,1597652669115164,-0.47216796875,0.2506103515625,-0.521484375,0.66510009765625,-0.5625,8.125,-0.0625,0.154296875,-0.9150390625,0.43701171875
56,1597652669128994,-0.4720458984375,0.2523193359375,-0.52191162109375,0.6641845703125,-7.4375,9.5,1.0625,0.16748046875,-0.88916015625,0.4404296875
57,1597652669152161,-0.47259521484375,0.25457763671875,-0.52215576171875,0.6627197265625,-12.0,10.125,1.125,0.17333984375,-0.9150390625,0.427734375
58,1597652669174990,-0.47259521484375,0.25634765625,-0.5233154296875,0.6611328125,-6.75,13.25,-3.0625,0.18310546875,-0.93310546875,0.42041015625
59,1597652669189265,-0.469970703125,0.25634765625,-0.52593994140625,0.66094970703125,11.375,15.6875,-4.625,0.19677734375,-0.93505859375,0.47998046875
60,1597652669212204,-0.46673583984375,0.25653076171875,-0.52850341796875,0.6611328125,13.6875,17.125,-3.4375,0.1728515625,-0.935546875,0.49169921875
61,1597652669234989,-0.46380615234375,0.25640869140625,-0.52996826171875,0.66204833984375,15.5625,10.125,0.25,0.14013671875,-0.92626953125,0.46337890625
62,1597652669255988,-0.4615478515625,0.25592041015625,-0.53076171875,0.66314697265625,16.75,4.0625,-1.4375,0.0966796875,-0.94140625,0.427734375
63,1597652669271988,-0.45867919921875,0.254150390625,-0.53289794921875,0.66412353515625,23.375,7.0,-4.8125,0.17529296875,-0.91357421875,0.4482421875
64,1597652669294986,-0.45526123046875,0.25262451171875,-0.536376953125,0.66424560546875,20.75,13.6875,-11.25,0.16455078125,-0.892578125,0.4990234375
65,1597652669315243,-0.45367431640625,0.25213623046875,-0.5384521484375,0.663818359375,10.75,6.8125,-12.4375,0.09375,-0.92138671875,0.4697265625
66,1597652669332234,-0.451904296875,0.2501220703125,-0.5404052734375,0.66424560546875,17.0,2.375,-8.8125,0.16259765625,-0.9189453125,0.48583984375
67,1597652669354224,-0.449951171875,0.2489013671875,-0.542724609375,0.66412353515625,11.9375,7.5625,-8.1875,0.18115234375,-0.87109375,0.5078125
68,1597652669375224,-0.44976806640625,0.249267578125,-0.54425048828125,0.662841796875,-1.3125,7.5625,-8.9375,0.15087890625,-0.86865234375,0.4677734375
69,1597652669392371,-0.45062255859375,0.2498779296875,-0.54541015625,0.66107177734375,-7.0625,5.375,-9.625,0.1640625,-0.89111328125,0.462890625
70,1597652669416302,-0.45123291015625,0.25006103515625,-0.54669189453125,0.6595458984375,-3.25,4.9375,-9.6875,0.18701171875,-0.9501953125,0.4794921875
71,1597652669435310,-0.44970703125,0.2491455078125,-0.5487060546875,0.65924072265625,11.25,7.5625,-7.625,0.19287109375,-0.91552734375,0.4921875
72,1597652669452303,-0.44842529296875,0.24822998046875,-0.55072021484375,0.65875244140625,8.0625,5.75,-10.8125,0.146484375,-0.8544921875,0.48974609375
73,1597652669474306,-0.44842529296875,0.24688720703125,-0.55242919921875,0.65789794921875,4.1875,1.375,-10.875,0.193359375,-0.84423828125,0.4697265625
74,1597652669495305,-0.44842529296875,0.24554443359375,-0.55377197265625,0.6572265625,3.6875,-0.3125,-9.3125,0.1982421875,-0.88671875,0.50146484375
75,1597652669512315,-0.44732666015625,0.24285888671875,-0.55560302734375,0.657470703125,16.25,-1.3125,-10.1875,0.21142578125,-0.90869140625,0.50048828125
76,1597652669534539,-0.44488525390625,0.24029541015625,-0.5572509765625,0.65863037109375,22.0625,2.1875,-2.9375,0.2275390625,-0.86328125,0.5029296875
77,1597652669555502,-0.4439697265625,0.23968505859375,-0.557861328125,0.65899658203125,8.25,1.25,-2.6875,0.162109375,-0.85546875,0.4765625
78,1597652669572417,-0.44378662109375,0.23907470703125,-0.55865478515625,0.65863037109375,3.375,0.8125,-6.0,0.1787109375,-0.888671875,0.5029296875
79,1597652669594415,-0.44342041015625,0.23828125,-0.55987548828125,0.65814208984375,4.6875,1.625,-7.75,0.189453125,-0.89013671875,0.51123046875
80,1597652669615859,-0.44317626953125,0.237060546875,-0.56134033203125,0.65753173828125,4.0625,1.5,-9.0,0.2060546875,-0.84912109375,0.5107421875
81,1597652669631994,-0.44354248046875,0.23675537109375,-0.5625,0.65631103515625,-2.9375,2.75,-8.3125,0.20703125,-0.83447265625,0.5
82,1597652669655045,-0.44415283203125,0.23699951171875,-0.56304931640625,0.6553955078125,-4.1875,1.1875,-5.8125,0.18701171875,-0.8935546875,0.509765625
83,1597652669675845,-0.44427490234375,0.23687744140625,-0.5635986328125,0.6549072265625,0.75,0.4375,-6.3125,0.17138671875,-0.91162109375,0.509765625
84,1597652669691852,-0.44390869140625,0.2357177734375,-0.56463623046875,0.6546630859375,6.3125,0.0,-6.4375,0.20849609375,-0.88037109375,0.5087890625
85,1597652669714711,-0.443603515625,0.235107421875,-0.56549072265625,0.65435791015625,2.9375,2.4375,-3.5,0.2255859375,-0.83984375,0.49853515625
86,1597652669735472,-0.4442138671875,0.23583984375,-0.56561279296875,0.653564453125,-6.875,2.3125,-1.125,0.20751953125,-0.845703125,0.50146484375
87,1597652669752474,-0.4451904296875,0.23681640625,-0.565185546875,0.65289306640625,-8.25,0.375,0.3125,0.19775390625,-0.89111328125,0.49462890625
88,1597652669774683,-0.4454345703125,0.2371826171875,-0.56512451171875,0.6527099609375,-0.375,1.1875,0.3125,0.2060546875,-0.9130859375,0.49072265625
89,1597652669795476,-0.4447021484375,0.23699951171875,-0.56536865234375,0.653076171875,5.125,1.5,0.0625,0.19189453125,-0.87939453125,0.50048828125
90,1597652669812479,-0.44427490234375,0.2371826171875,-0.56549072265625,0.65313720703125,1.1875,2.1875,0.6875,0.1904296875,-0.861328125,0.50341796875
91,1597652669834365,-0.44476318359375,0.23834228515625,-0.5650634765625,0.6527099609375,-6.875,1.4375,0.8125,0.1748046875,-0.8857421875,0.50244140625
92,1597652669856091,-0.4454345703125,0.23931884765625,-0.5648193359375,0.65216064453125,-6.75,1.6875,0.75,0.19873046875,-0.89306640625,0.501953125
93,1597652669872100,-0.44549560546875,0.23974609375,-0.56494140625,0.65185546875,-1.6875,2.0,-1.0625,0.19140625,-0.9052734375,0.50634765625
94,1597652669894951,-0.4451904296875,0.2396240234375,-0.56512451171875,0.6519775390625,2.375,0.125,-1.0625,0.18212890625,-0.8828125,0.50390625
95,1597652669917013,-0.4451904296875,0.2396240234375,-0.5650634765625,0.6519775390625,0.625,-0.625,-0.625,0.1875,-0.87890625,0.50732421875
96,1597652669931738,-0.4454345703125,0.23974609375,-0.56494140625,0.65191650390625,-1.6875,-0.8125,0.0625,0.19384765625,-0.8837890625,0.49951171875
97,1597652669954744,-0.4459228515625,0.239990234375,-0.564697265625,0.65167236328125,-1.875,-0.4375,0.625,0.20654296875,-0.88623046875,0.48388671875
98,1597652669976914,-0.446044921875,0.240234375,-0.5645751953125,0.651611328125,-1.25,0.3125,0.5,0.1923828125,-0.8828125,0.49658203125
99,1597652669991749,-0.44610595703125,0.24053955078125,-0.5643310546875,0.65167236328125,-1.625,-0.1875,1.125,0.18603515625,-0.87744140625,0.5009765625
100,1597652670014520,-0.4462890625,0.2406005859375,-0.5640869140625,0.6517333984375,-1.75,-1.3125,1.0,0.1923828125,-0.88037109375,0.51123046875
101,1597652670037404,-0.4468994140625,0.24072265625,-0.5635986328125,0.65167236328125,-3.125,-2.5625,1.0625,0.19677734375,-0.87744140625,0.49462890625
102,1597652670051413,-0.4473876953125,0.24127197265625,-0.563232421875,0.6514892578125,-4.8125,-0.3125,1.1875,0.19580078125,-0.90966796875,0.51025390625
