index,timestamp,orientation_x,orientation_y,orientation_z,orientation_w,gyroscope_x,gyroscope_y,gyroscope_z,acceleration_x,acceleration_y,acceleration_z
0,1597981969150413,-0.1527099609375,0.318359375,-0.86083984375,0.36651611328125,4.875,-1.875,-1.3125,0.033203125,-0.65283203125,0.7685546875
1,1597981969170413,-0.153076171875,0.3187255859375,-0.8607177734375,0.3662109375,-4.1875,-0.5625,-1.6875,0.02783203125,-0.65673828125,0.767578125
2,1597981969192420,-0.1539306640625,0.32037353515625,-0.86029052734375,0.36541748046875,-11.125,0.5,-3.0,0.0322265625,-0.6728515625,0.7509765625
3,1597981969210420,-0.15447998046875,0.3223876953125,-0.85968017578125,0.3648681640625,-11.75,1.6875,-1.25,0.02490234375,-0.69775390625,0.7548828125
4,1597981969229419,-0.15496826171875,0.32415771484375,-0.85919189453125,0.36431884765625,-10.4375,1.3125,-1.375,0.02392578125,-0.6953125,0.75341796875
5,1597981969252502,-0.1556396484375,0.32562255859375,-0.85870361328125,0.36383056640625,-9.4375,-0.125,-1.75,0.02392578125,-0.69873046875,0.76025390625
6,1597981969270496,-0.15618896484375,0.32635498046875,-0.85845947265625,0.363525390625,-4.625,-0.6875,-1.0625,0.0341796875,-0.7109375,0.759765625
7,1597981969289502,-0.15643310546875,0.32611083984375,-0.85858154296875,0.3634033203125,1.1875,-1.25,-1.375,0.03662109375,-0.70458984375,0.76220703125
8,1597981969312502,-0.1563720703125,0.32525634765625,-0.85894775390625,0.36322021484375,3.8125,0.0625,-1.625,0.046875,-0.6787109375,0.76416015625
9,1597981969330504,-0.15631103515625,0.32501220703125,-0.85919189453125,0.36297607421875,0.5625,0.1875,-1.8125,0.0322265625,-0.669921875,0.76171875
10,1597981969351497,-0.15673828125,0.32550048828125,-0.8590087890625,0.36273193359375,-5.625,-0.6875,-1.1875,0.033203125,-0.6787109375,0.7763671875
11,1597981969372504,-0.15765380859375,0.32666015625,-0.85858154296875,0.3623046875,-8.625,-1.75,-1.9375,0.03759765625,-0.69140625,0.7529296875
12,1597981969390496,-0.15850830078125,0.327392578125,-0.8583984375,0.36175537109375,-7.3125,-0.75,-2.1875,0.05322265625,-0.6865234375,0.7685546875
13,1597981969409502,-0.15911865234375,0.32818603515625,-0.858154296875,0.361328125,-6.9375,-0.75,-1.875,0.03955078125,-0.68115234375,0.75439453125
14,1597981969435504,-0.16082763671875,0.32977294921875,-0.85736083984375,0.36102294921875,-13.5,-5.75,-2.125,0.02783203125,-0.712890625,0.76708984375
15,1597981969450500,-0.16241455078125,0.3309326171875,-0.8563232421875,0.3616943359375,-9.375,-10.0625,1.125,-0.00341796875,-0.72119140625,0.75048828125
16,1597981969469504,-0.16424560546875,0.3314208984375,-0.85552978515625,0.3623046875,-6.5,-10.25,1.375,0.03076171875,-0.701171875,0.72509765625
17,1597981969492594,-0.16583251953125,0.3316650390625,-0.85516357421875,0.36224365234375,-6.0,-6.25,-1.3125,0.06787109375,-0.689453125,0.74560546875
18,1597981969510585,-0.1668701171875,0.33233642578125,-0.8546142578125,0.36248779296875,-7.6875,-5.3125,0.4375,0.033203125,-0.69189453125,0.7509765625
19,1597981969531585,-0.16802978515625,0.33343505859375,-0.8538818359375,0.3626708984375,-9.75,-5.25,0.625,0.0322265625,-0.69287109375,0.734375
20,1597981969552585,-0.16949462890625,0.3349609375,-0.85296630859375,0.36273193359375,-13.0,-4.5,1.3125,0.0576171875,-0.69677734375,0.73388671875
21,1597981969570586,-0.17083740234375,0.3372802734375,-0.8519287109375,0.3623046875,-17.3125,-1.125,0.75,0.06298828125,-0.70068359375,0.73388671875
22,1597981969591582,-0.171875,0.34027099609375,-0.85076904296875,0.36181640625,-18.8125,0.625,0.375,0.041015625,-0.73046875,0.71875
23,1597981969612593,-0.1729736328125,0.3428955078125,-0.849609375,0.36151123046875,-15.75,-0.875,0.8125,0.0361328125,-0.75390625,0.71826171875
24,1597981969630683,-0.1737060546875,0.3441162109375,-0.8489990234375,0.36138916015625,-7.5625,-1.25,0.5,0.05029296875,-0.7490234375,0.71435546875
25,1597981969653767,-0.17388916015625,0.34442138671875,-0.84881591796875,0.36151123046875,-1.875,-0.5,1.0,0.05078125,-0.72900390625,0.716796875
26,1597981969672749,-0.1739501953125,0.34466552734375,-0.84869384765625,0.36151123046875,-1.6875,0.0,0.625,0.05078125,-0.72607421875,0.71484375
27,1597981969689784,-0.1739501953125,0.3446044921875,-0.84869384765625,0.36151123046875,-0.3125,0.3125,0.3125,0.05419921875,-0.7294921875,0.7314453125
28,1597981969711765,-0.1739501953125,0.3446044921875,-0.84869384765625,0.36151123046875,-0.4375,0.25,0.5,0.0439453125,-0.72021484375,0.72216796875
29,1597981969732770,-0.17401123046875,0.344970703125,-0.84857177734375,0.361572265625,-2.75,-0.25,0.1875,0.03662109375,-0.72314453125,0.72607421875
30,1597981969749767,-0.17449951171875,0.34576416015625,-0.84820556640625,0.36138916015625,-5.3125,-0.9375,-0.375,0.04296875,-0.7373046875,0.71435546875
31,1597981969771743,-0.17486572265625,0.34637451171875,-0.84783935546875,0.36138916015625,-3.75,-0.9375,0.375,0.0458984375,-0.74169921875,0.71484375
32,1597981969792764,-0.175048828125,0.34613037109375,-0.847900390625,0.3614501953125,0.125,-1.25,-0.25,0.05224609375,-0.7294921875,0.72265625
33,1597981969810757,-0.17498779296875,0.34588623046875,-0.84796142578125,0.36151123046875,1.125,-0.375,-0.125,0.04736328125,-0.72216796875,0.71484375
34,1597981969830762,-0.17498779296875,0.34588623046875,-0.84796142578125,0.36151123046875,-0.5,-0.0625,0.25,0.048828125,-0.724609375,0.71337890625
35,1597981969852764,-0.175048828125,0.34625244140625,-0.84783935546875,0.36151123046875,-1.75,0.25,0.8125,0.048828125,-0.740234375,0.71875
36,1597981969870758,-0.175048828125,0.34625244140625,-0.84783935546875,0.36151123046875,-0.5625,0.125,0.5,0.05126953125,-0.73681640625,0.71875
37,1597981969892756,-0.1749267578125,0.34600830078125,-0.847900390625,0.361572265625,1.5625,0.25,-0.125,0.04736328125,-0.73486328125,0.7197265625
38,1597981969912757,-0.17474365234375,0.34564208984375,-0.84808349609375,0.36163330078125,2.0625,0.25,0.1875,0.048828125,-0.7294921875,0.724609375
39,1597981969929764,-0.17474365234375,0.34564208984375,-0.84808349609375,0.36163330078125,0.1875,0.25,-0.125,0.04638671875,-0.72119140625,0.71630859375
40,1597981969952755,-0.1748046875,0.34600830078125,-0.847900390625,0.361572265625,-2.8125,0.0625,0.1875,0.04345703125,-0.72314453125,0.71533203125
41,1597981969972764,-0.17498779296875,0.34625244140625,-0.8477783203125,0.36163330078125,-2.0,-0.4375,0.4375,0.05029296875,-0.7353515625,0.72412109375
42,1597981969989770,-0.17498779296875,0.34625244140625,-0.8477783203125,0.36163330078125,0.0,0.0,-0.3125,0.0478515625,-0.73193359375,0.7216796875
43,1597981970012756,-0.1749267578125,0.34625244140625,-0.8477783203125,0.36163330078125,0.6875,0.25,-0.1875,0.04248046875,-0.72314453125,0.71484375
44,1597981970032764,-0.17498779296875,0.34637451171875,-0.84771728515625,0.36163330078125,-1.4375,-0.125,0.125,0.0439453125,-0.72607421875,0.7197265625
45,1597981970050756,-0.175048828125,0.3465576171875,-0.84765625,0.36163330078125,-1.1875,0.125,0.375,0.052734375,-0.736328125,0.72021484375
46,1597981970072759,-0.175048828125,0.3465576171875,-0.84765625,0.36163330078125,0.25,0.5,-0.0625,0.046875,-0.7373046875,0.7275390625
47,1597981970092764,-0.17486572265625,0.3463134765625,-0.8477783203125,0.36163330078125,1.4375,0.6875,-0.0625,0.0478515625,-0.72509765625,0.7138671875
48,1597981970110759,-0.17486572265625,0.3463134765625,-0.8477783203125,0.36163330078125,-0.75,0.25,-0.125,0.04638671875,-0.72802734375,0.71826171875
49,1597981970132758,-0.1749267578125,0.3465576171875,-0.84765625,0.36163330078125,-2.1875,0.1875,0.25,0.04736328125,-0.72509765625,0.71875
50,1597981970152756,-0.17498779296875,0.346923828125,-0.8475341796875,0.36151123046875,-1.6875,0.3125,-0.0625,0.044921875,-0.73779296875,0.71240234375
51,1597981970170758,-0.17498779296875,0.346923828125,-0.8475341796875,0.36151123046875,-0.5,0.3125,-0.125,0.044921875,-0.7353515625,0.72119140625
52,1597981970193765,-0.17498779296875,0.346923828125,-0.8475341796875,0.36151123046875,0.8125,0.1875,-0.125,0.04541015625,-0.7314453125,0.71875
53,1597981970212761,-0.1749267578125,0.34661865234375,-0.84765625,0.361572265625,1.25,-0.1875,-0.3125,0.0498046875,-0.7255859375,0.71875
54,1597981970229765,-0.1749267578125,0.34661865234375,-0.84765625,0.361572265625,0.8125,-0.4375,0.1875,0.04296875,-0.7275390625,0.71435546875
55,1597981970252758,-0.1749267578125,0.34661865234375,-0.84771728515625,0.361572265625,-0.25,-0.625,0.25,0.04736328125,-0.72998046875,0.72119140625
56,1597981970272764,-0.1749267578125,0.3465576171875,-0.84771728515625,0.361572265625,-0.3125,-0.5,0.0625,0.05029296875,-0.73193359375,0.72509765625
57,1597981970289765,-0.1748046875,0.34637451171875,-0.8477783203125,0.361572265625,1.625,0.1875,-0.125,0.04736328125,-0.73681640625,0.7158203125
58,1597981970312764,-0.174560546875,0.3460693359375,-0.84796142578125,0.361572265625,1.6875,0.625,-0.3125,0.0458984375,-0.73095703125,0.72265625
59,1597981970332764,-0.17431640625,0.34588623046875,-0.84808349609375,0.36151123046875,1.375,0.875,-0.4375,0.0439453125,-0.72900390625,0.7197265625
60,1597981970349756,-0.17431640625,0.34588623046875,-0.84814453125,0.36151123046875,0.5,0.75,-0.5625,0.0400390625,-0.72314453125,0.7177734375
61,1597981970372758,-0.17431640625,0.34588623046875,-0.84814453125,0.36151123046875,-0.0625,0.5,-0.125,0.0439453125,-0.7265625,0.71923828125
62,1597981970392764,-0.17431640625,0.34588623046875,-0.84814453125,0.36151123046875,-0.625,0.25,0.0625,0.046875,-0.7275390625,0.7197265625
63,1597981970410758,-0.17431640625,0.34588623046875,-0.84814453125,0.36151123046875,-0.6875,-0.125,0.125,0.0478515625,-0.73583984375,0.72119140625
64,1597981970432759,-0.17425537109375,0.345703125,-0.84820556640625,0.36151123046875,1.0,0.1875,-0.25,0.0498046875,-0.7275390625,0.71728515625
65,1597981970452756,-0.17425537109375,0.345703125,-0.84820556640625,0.36151123046875,-0.1875,0.3125,0.0625,0.0419921875,-0.72802734375,0.7177734375
66,1597981970470758,-0.1741943359375,0.34564208984375,-0.84820556640625,0.36151123046875,-0.5625,-0.125,0.0,0.0478515625,-0.72802734375,0.73046875
67,1597981970492756,-0.1741943359375,0.345703125,-0.84820556640625,0.36151123046875,0.9375,0.0,-0.125,0.041015625,-0.7333984375,0.70654296875
68,1597981970512764,-0.1741943359375,0.345703125,-0.84820556640625,0.36151123046875,-0.3125,0.1875,-0.1875,0.04736328125,-0.72705078125,0.7158203125
69,1597981970529764,-0.1741943359375,0.345703125,-0.84820556640625,0.36151123046875,0.6875,0.375,-0.375,0.04931640625,-0.732421875,0.72119140625
70,1597981970551772,-0.1739501953125,0.34552001953125,-0.84832763671875,0.361572265625,1.1875,0.6875,0.3125,0.04248046875,-0.7265625,0.71875
71,1597981970572764,-0.17364501953125,0.34527587890625,-0.8485107421875,0.361572265625,1.6875,0.875,-0.3125,0.041015625,-0.7236328125,0.7236328125
72,1597981970589766,-0.17364501953125,0.34527587890625,-0.8485107421875,0.361572265625,0.375,0.9375,-0.375,0.046875,-0.72314453125,0.7275390625
73,1597981970611756,-0.17364501953125,0.34527587890625,-0.8485107421875,0.361572265625,0.5,-0.1875,-0.25,0.0478515625,-0.724609375,0.712890625
74,1597981970632760,-0.1737060546875,0.345458984375,-0.848388671875,0.36151123046875,-1.75,-0.0625,0.125,0.04638671875,-0.724609375,0.7216796875
75,1597981970649765,-0.17376708984375,0.345703125,-0.84832763671875,0.36151123046875,-1.8125,0.1875,0.125,0.044921875,-0.7294921875,0.71875
76,1597981970671758,-0.173828125,0.345703125,-0.84832763671875,0.36151123046875,-0.75,0.0625,0.1875,0.04931640625,-0.7373046875,0.71923828125
77,1597981970692766,-0.1737060546875,0.345458984375,-0.84832763671875,0.36163330078125,1.5625,-0.375,0.4375,0.0419921875,-0.7373046875,0.7255859375
78,1597981970709765,-0.173583984375,0.34503173828125,-0.8485107421875,0.3616943359375,2.5,-0.1875,-0.25,0.04833984375,-0.72412109375,0.72021484375
79,1597981970731767,-0.17352294921875,0.34503173828125,-0.84857177734375,0.3616943359375,0.6875,-0.0625,-0.25,0.04638671875,-0.7216796875,0.716796875
80,1597981970752764,-0.17352294921875,0.34503173828125,-0.84857177734375,0.3616943359375,-0.875,0.0,-0.125,0.04541015625,-0.7265625,0.71728515625
81,1597981970769764,-0.17364501953125,0.34539794921875,-0.848388671875,0.3616943359375,-1.875,0.0,0.25,0.044921875,-0.734375,0.7138671875
82,1597981970791758,-0.17364501953125,0.34539794921875,-0.848388671875,0.3616943359375,-0.3125,0.25,-0.0625,0.04345703125,-0.7373046875,0.71875
83,1597981970814766,-0.17364501953125,0.34539794921875,-0.848388671875,0.3616943359375,0.75,0.1875,-0.1875,0.04638671875,-0.72802734375,0.71875
84,1597981970829765,-0.17364501953125,0.34539794921875,-0.848388671875,0.3616943359375,0.875,0.125,0.0625,0.04638671875,-0.7265625,0.72265625
85,1597981970851758,-0.17364501953125,0.3453369140625,-0.848388671875,0.3616943359375,0.9375,0.0,-0.0625,0.04296875,-0.724609375,0.72705078125
86,1597981970874758,-0.17364501953125,0.3453369140625,-0.848388671875,0.3616943359375,0.25,-0.1875,-0.375,0.0419921875,-0.7216796875,0.7314453125
87,1597981970895780,-0.173583984375,0.34527587890625,-0.84844970703125,0.3616943359375,-0.9375,0.125,-0.3125,0.04443359375,-0.72314453125,0.72265625
88,1597981970911819,-0.17376708984375,0.34564208984375,-0.84832763671875,0.361572265625,-2.4375,0.125,-0.3125,0.04736328125,-0.73193359375,0.72021484375
89,1597981970934809,-0.17376708984375,0.34564208984375,-0.84832763671875,0.361572265625,-0.375,0.0625,-0.1875,0.0498046875,-0.7373046875,0.71533203125
90,1597981970948902,-0.17364501953125,0.3453369140625,-0.84844970703125,0.36163330078125,1.75,-0.0625,-0.1875,0.04541015625,-0.73291015625,0.72607421875
91,1597981970972484,-0.17352294921875,0.344970703125,-0.84857177734375,0.3616943359375,2.4375,-0.3125,-0.25,0.04150390625,-0.72265625,0.71533203125
92,1597981970994499,-0.17352294921875,0.34490966796875,-0.84857177734375,0.3616943359375,0.375,-0.1875,-0.25,0.0458984375,-0.72021484375,0.72314453125
93,1597981971008503,-0.173583984375,0.34515380859375,-0.8485107421875,0.3616943359375,-1.625,-0.0625,0.125,0.0439453125,-0.7294921875,0.7197265625
94,1597981971032501,-0.173583984375,0.34515380859375,-0.8485107421875,0.3616943359375,-0.6875,0.0625,0.0,0.04736328125,-0.7353515625,0.720703125
95,1597981971054506,-0.173583984375,0.34515380859375,-0.8485107421875,0.3616943359375,0.5,0.3125,-0.1875,0.04638671875,-0.732421875,0.72705078125
96,1597981971068501,-0.17340087890625,0.34490966796875,-0.8486328125,0.3616943359375,1.75,0.5,-0.1875,0.048828125,-0.724609375,0.71875
97,1597981971091497,-0.17340087890625,0.3448486328125,-0.8486328125,0.3616943359375,0.8125,0.4375,0.375,0.04248046875,-0.72509765625,0.7255859375
98,1597981971114497,-0.17340087890625,0.3448486328125,-0.8486328125,0.3616943359375,0.375,0.375,0.625,0.04150390625,-0.73095703125,0.728515625
99,1597981971128500,-0.173095703125,0.34442138671875,-0.848876953125,0.3616943359375,2.75,0.5,-0.25,0.046875,-0.73046875,0.73095703125
100,1597981971152512,-0.1727294921875,0.34393310546875,-0.84912109375,0.3616943359375,3.5625,0.8125,-0.5625,0.0390625,-0.72509765625,0.7197265625
