index,timestamp,orientation_x,orientation_y,orientation_z,orientation_w,gyroscope_x,gyroscope_y,gyroscope_z,acceleration_x,acceleration_y,acceleration_z
0,1597982663245157,-0.18890380859375,0.11962890625,-0.4847412109375,0.8455810546875,-3.5625,0.6875,0.9375,-0.0224609375,-0.4814453125,0.92529296875
1,1597982663267164,-0.18853759765625,0.1195068359375,-0.484619140625,0.84576416015625,3.375,0.4375,1.5625,-0.017578125,-0.46337890625,0.9189453125
2,1597982663288163,-0.18768310546875,0.11932373046875,-0.48455810546875,0.84600830078125,5.25,0.625,0.9375,-0.02587890625,-0.447265625,0.91552734375
3,1597982663305155,-0.18719482421875,0.119140625,-0.4844970703125,0.84619140625,3.0625,0.5625,0.875,-0.02197265625,-0.4404296875,0.91552734375
4,1597982663327156,-0.18695068359375,0.11932373046875,-0.484375,0.84625244140625,1.0,0.6875,0.75,-0.02978515625,-0.4443359375,0.91650390625
5,1597982663350157,-0.18695068359375,0.11932373046875,-0.484375,0.84625244140625,0.25,0.6875,0.125,-0.02392578125,-0.4482421875,0.9189453125
6,1597982663365157,-0.18695068359375,0.11932373046875,-0.484375,0.84625244140625,0.3125,0.625,0.0,-0.021484375,-0.447265625,0.9248046875
7,1597982663387156,-0.18670654296875,0.11932373046875,-0.48443603515625,0.8463134765625,1.3125,0.625,0.125,-0.02099609375,-0.44140625,0.92431640625
8,1597982663410157,-0.1861572265625,0.119140625,-0.48443603515625,0.846435546875,2.5,0.5625,0.25,-0.0244140625,-0.43408203125,0.93310546875
9,1597982663425159,-0.18572998046875,0.11907958984375,-0.48455810546875,0.84649658203125,1.875,0.625,-0.0625,-0.025390625,-0.43359375,0.92529296875
10,1597982663447156,-0.18572998046875,0.11907958984375,-0.48455810546875,0.84649658203125,-0.375,0.25,0.25,-0.0263671875,-0.4306640625,0.9296875
11,1597982663470157,-0.18572998046875,0.1190185546875,-0.48455810546875,0.84649658203125,-0.75,-0.1875,0.4375,-0.01953125,-0.4365234375,0.92724609375
12,1597982663484157,-0.18572998046875,0.1190185546875,-0.48455810546875,0.84649658203125,0.25,0.3125,0.125,-0.0234375,-0.44384765625,0.927734375
13,1597982663507244,-0.18572998046875,0.1190185546875,-0.48455810546875,0.84649658203125,0.625,0.3125,0.125,-0.0244140625,-0.439453125,0.91943359375
14,1597982663530254,-0.1854248046875,0.11895751953125,-0.484619140625,0.84649658203125,1.125,0.125,-0.375,-0.029296875,-0.4384765625,0.9384765625
15,1597982663544248,-0.185546875,0.11907958984375,-0.4847412109375,0.846435546875,-1.375,-0.6875,-1.4375,-0.04052734375,-0.42919921875,0.91162109375
16,1597982663567250,-0.18658447265625,0.11907958984375,-0.48480224609375,0.84613037109375,-4.25,-1.875,-1.4375,-0.00927734375,-0.45458984375,0.9189453125
17,1597982663590257,-0.1866455078125,0.119140625,-0.48480224609375,0.84613037109375,-0.5625,-0.625,-0.8125,-0.01708984375,-0.46484375,0.92431640625
18,1597982663604259,-0.18603515625,0.11871337890625,-0.48492431640625,0.84625244140625,4.625,-0.4375,-0.5625,-0.02392578125,-0.4501953125,0.923828125
19,1597982663627245,-0.185302734375,0.11822509765625,-0.48529052734375,0.84625244140625,4.625,-0.625,-2.0625,-0.03125,-0.42626953125,0.92138671875
20,1597982663656245,-0.1854248046875,0.11785888671875,-0.4853515625,0.84625244140625,-2.0625,-2.6875,-1.25,-0.03173828125,-0.404296875,0.92578125
21,1597982663664245,-0.18634033203125,0.11712646484375,-0.48553466796875,0.8460693359375,-4.125,-5.375,-2.375,-0.00927734375,-0.419921875,0.9375
22,1597982663687244,-0.1878662109375,0.115966796875,-0.48529052734375,0.84600830078125,-5.6875,-10.6875,-1.5625,-0.02685546875,-0.421875,0.9326171875
23,1597982663710246,-0.19000244140625,0.1148681640625,-0.48529052734375,0.845703125,-8.75,-10.375,-3.375,0.00244140625,-0.43212890625,0.9267578125
24,1597982663724253,-0.1923828125,0.11419677734375,-0.4853515625,0.84521484375,-10.75,-8.1875,-3.1875,0.01318359375,-0.4384765625,0.93017578125
25,1597982663755253,-0.19488525390625,0.114013671875,-0.4849853515625,0.8448486328125,-13.6875,-7.9375,-1.125,-0.00146484375,-0.43505859375,0.9267578125
26,1597982663770246,-0.19793701171875,0.1138916015625,-0.48406982421875,0.8447265625,-15.6875,-11.25,1.25,-0.021484375,-0.4560546875,0.93701171875
27,1597982663791253,-0.2015380859375,0.11322021484375,-0.4833984375,0.84429931640625,-19.4375,-12.875,-0.3125,0.0205078125,-0.41552734375,0.916015625
28,1597982663807244,-0.206787109375,0.1151123046875,-0.4822998046875,0.84344482421875,-31.5625,-6.375,1.3125,-0.0009765625,-0.47216796875,0.89306640625
29,1597982663830253,-0.21136474609375,0.11688232421875,-0.4813232421875,0.84259033203125,-25.4375,-4.75,1.4375,0.00439453125,-0.53515625,0.908203125
30,1597982663850254,-0.21368408203125,0.11785888671875,-0.4808349609375,0.8421630859375,-10.8125,-3.125,0.125,-0.01025390625,-0.54541015625,0.89404296875
31,1597982663867247,-0.2144775390625,0.11761474609375,-0.48040771484375,0.84222412109375,-0.0625,-3.9375,1.1875,0.0048828125,-0.529296875,0.8837890625
32,1597982663890248,-0.214111328125,0.11700439453125,-0.48028564453125,0.84246826171875,4.625,-2.5,0.875,0.00732421875,-0.4912109375,0.88037109375
33,1597982663911252,-0.21405029296875,0.11651611328125,-0.48016357421875,0.8426513671875,1.375,-2.875,0.125,0.00341796875,-0.46728515625,0.88232421875
34,1597982663927247,-0.214599609375,0.1163330078125,-0.48028564453125,0.84246826171875,-2.75,-1.5,-1.375,0.01806640625,-0.4775390625,0.89501953125
35,1597982663958248,-0.21514892578125,0.1163330078125,-0.48040771484375,0.84222412109375,-2.625,-0.5,-1.375,0.0205078125,-0.48974609375,0.90478515625
36,1597982663978255,-0.21502685546875,0.116455078125,-0.480712890625,0.84210205078125,0.1875,1.0625,-1.5625,0.0078125,-0.484375,0.900390625
37,1597982663987247,-0.21502685546875,0.11651611328125,-0.48065185546875,0.84210205078125,0.6875,-0.125,-0.875,-0.00634765625,-0.4951171875,0.8955078125
38,1597982664016254,-0.2147216796875,0.1162109375,-0.4808349609375,0.84210205078125,2.4375,-0.625,-0.875,0.01025390625,-0.48583984375,0.90673828125
39,1597982664031253,-0.21441650390625,0.11590576171875,-0.48089599609375,0.84222412109375,2.125,-0.5625,-0.375,0.0107421875,-0.4755859375,0.8974609375
40,1597982664047247,-0.21435546875,0.1158447265625,-0.48089599609375,0.84222412109375,0.5625,-0.625,0.3125,0.01416015625,-0.47216796875,0.90966796875
41,1597982664070254,-0.21435546875,0.1158447265625,-0.48089599609375,0.84222412109375,-0.4375,-0.3125,0.0,0.005859375,-0.4833984375,0.904296875
42,1597982664098253,-0.21435546875,0.1158447265625,-0.48089599609375,0.84222412109375,-0.8125,-0.25,-0.0625,0.015625,-0.49267578125,0.9013671875
43,1597982664107248,-0.214599609375,0.11578369140625,-0.4808349609375,0.84222412109375,-0.0625,-1.1875,0.0,0.0087890625,-0.498046875,0.90478515625
44,1597982664137247,-0.2142333984375,0.115478515625,-0.48089599609375,0.84234619140625,2.8125,-0.75,-0.125,0.00732421875,-0.48779296875,0.90185546875
45,1597982664151253,-0.2137451171875,0.11517333984375,-0.48095703125,0.84246826171875,3.3125,-0.3125,-0.0625,0.01025390625,-0.48046875,0.904296875
46,1597982664167245,-0.21343994140625,0.114990234375,-0.48101806640625,0.842529296875,1.8125,-0.0625,-0.3125,0.0107421875,-0.4755859375,0.90087890625
47,1597982664190246,-0.21343994140625,0.114990234375,-0.48101806640625,0.842529296875,-0.5,-0.5625,-0.5,0.01513671875,-0.4765625,0.9033203125
48,1597982664211245,-0.21356201171875,0.1151123046875,-0.4810791015625,0.8424072265625,-1.0625,0.3125,-0.5625,0.01220703125,-0.48583984375,0.90283203125
49,1597982664227244,-0.213623046875,0.1151123046875,-0.4810791015625,0.8424072265625,-0.6875,-0.1875,0.1875,0.0146484375,-0.490234375,0.9033203125
50,1597982664257247,-0.21343994140625,0.114990234375,-0.481201171875,0.8424072265625,1.75,-0.0625,-0.4375,0.0078125,-0.48876953125,0.90185546875
51,1597982664272246,-0.21307373046875,0.11468505859375,-0.48126220703125,0.84246826171875,2.4375,0.0,-0.1875,0.0185546875,-0.4765625,0.89990234375
52,1597982664287247,-0.21307373046875,0.11468505859375,-0.48126220703125,0.84246826171875,0.5625,0.375,-0.375,0.01123046875,-0.4775390625,0.904296875
53,1597982664310254,-0.21307373046875,0.11468505859375,-0.48126220703125,0.84246826171875,0.1875,0.5,-0.3125,0.0107421875,-0.482421875,0.9013671875
54,1597982664332247,-0.21307373046875,0.11468505859375,-0.48126220703125,0.84246826171875,0.125,-0.0625,-0.0625,0.013671875,-0.48681640625,0.90673828125
55,1597982664347247,-0.21307373046875,0.11468505859375,-0.48126220703125,0.84246826171875,0.9375,-0.25,0.0,0.01171875,-0.484375,0.90380859375
56,1597982664370257,-0.2127685546875,0.1146240234375,-0.4813232421875,0.842529296875,2.0625,0.6875,0.0,0.01220703125,-0.4833984375,0.9052734375
57,1597982664392248,-0.21246337890625,0.11474609375,-0.4813232421875,0.84259033203125,1.625,0.6875,0.125,0.00341796875,-0.48486328125,0.89697265625
58,1597982664406244,-0.21221923828125,0.11468505859375,-0.4813232421875,0.84271240234375,1.6875,0.125,0.3125,0.009765625,-0.48291015625,0.90380859375
59,1597982664430247,-0.2117919921875,0.11456298828125,-0.4814453125,0.84271240234375,2.0625,1.0625,-0.3125,0.01513671875,-0.474609375,0.908203125
60,1597982664452247,-0.21148681640625,0.1146240234375,-0.48150634765625,0.8427734375,1.25,0.9375,0.1875,0.00537109375,-0.47265625,0.9013671875
61,1597982664466341,-0.21148681640625,0.1146240234375,-0.48150634765625,0.8427734375,0.3125,0.75,-0.25,0.01416015625,-0.4775390625,0.90576171875
62,1597982664490336,-0.21148681640625,0.1146240234375,-0.48150634765625,0.8427734375,-0.125,0.3125,-0.25,0.0087890625,-0.4814453125,0.90869140625
63,1597982664512333,-0.21148681640625,0.1146240234375,-0.48150634765625,0.8427734375,0.4375,0.1875,0.125,0.0146484375,-0.4736328125,0.90576171875
64,1597982664533416,-0.21148681640625,0.1146240234375,-0.48150634765625,0.8427734375,0.3125,0.5,0.0,0.0068359375,-0.47265625,0.90283203125
65,1597982664550407,-0.2115478515625,0.11480712890625,-0.48138427734375,0.8427734375,-1.4375,0.25,0.3125,0.005859375,-0.46923828125,0.904296875
66,1597982664572407,-0.21197509765625,0.1148681640625,-0.48138427734375,0.84271240234375,-1.9375,-0.125,0.0,0.01904296875,-0.4873046875,0.90087890625
67,1597982664586411,-0.21197509765625,0.1148681640625,-0.48138427734375,0.84271240234375,-0.1875,0.0,0.1875,0.00732421875,-0.48095703125,0.9111328125
68,1597982664610417,-0.21197509765625,0.1148681640625,-0.48138427734375,0.84271240234375,0.625,-0.625,0.75,0.01708984375,-0.4873046875,0.9052734375
69,1597982664632504,-0.211669921875,0.11480712890625,-0.48138427734375,0.8427734375,1.8125,0.3125,0.375,0.009765625,-0.47998046875,0.90234375
70,1597982664646505,-0.21142578125,0.11474609375,-0.4814453125,0.84283447265625,1.4375,0.6875,-0.125,0.01318359375,-0.4736328125,0.8994140625
71,1597982664669518,-0.21142578125,0.11474609375,-0.4814453125,0.84283447265625,-0.1875,0.875,-0.3125,0.0048828125,-0.47509765625,0.90673828125
72,1597982664692590,-0.21142578125,0.11474609375,-0.4814453125,0.84283447265625,-0.0625,0.3125,-0.125,0.0078125,-0.48193359375,0.912109375
73,1597982664706586,-0.21136474609375,0.11474609375,-0.4814453125,0.84283447265625,0.5,0.625,-0.4375,0.00927734375,-0.474609375,0.91259765625
74,1597982664714586,-0.21136474609375,0.11474609375,-0.4814453125,0.84283447265625,-0.125,-0.125,-0.1875,0.00439453125,-0.47216796875,0.90771484375
75,1597982664735682,-0.21136474609375,0.11474609375,-0.4814453125,0.84283447265625,-0.3125,0.3125,-0.1875,0.0078125,-0.4755859375,0.9111328125
76,1597982664757684,-0.21136474609375,0.11474609375,-0.4814453125,0.84283447265625,0.0,0.0625,-0.25,0.0068359375,-0.48583984375,0.9052734375
77,1597982664774673,-0.21136474609375,0.11474609375,-0.4814453125,0.84283447265625,0.5625,-0.1875,0.0,0.01171875,-0.47900390625,0.90576171875
78,1597982664795673,-0.21136474609375,0.11474609375,-0.4814453125,0.84283447265625,0.5625,-0.0625,0.0,0.01025390625,-0.478515625,0.90966796875
79,1597982664817682,-0.21136474609375,0.11474609375,-0.4814453125,0.84283447265625,0.875,-0.125,0.125,0.009765625,-0.474609375,0.912109375
80,1597982664835675,-0.2113037109375,0.11474609375,-0.4814453125,0.84283447265625,0.0625,0.0,0.1875,0.0068359375,-0.47021484375,0.9072265625
81,1597982664855683,-0.2113037109375,0.11474609375,-0.4814453125,0.84283447265625,-0.8125,0.0625,0.0,0.0068359375,-0.47900390625,0.900390625
82,1597982664885682,-0.21136474609375,0.11474609375,-0.4814453125,0.84283447265625,-0.375,0.3125,-0.125,0.01416015625,-0.48486328125,0.9052734375
83,1597982664894675,-0.211181640625,0.11480712890625,-0.4814453125,0.8428955078125,1.6875,0.6875,0.25,0.01220703125,-0.48974609375,0.89892578125
84,1597982664915674,-0.2105712890625,0.11456298828125,-0.48162841796875,0.84295654296875,4.125,1.1875,-0.3125,0.0166015625,-0.4873046875,0.90625
85,1597982664937682,-0.20965576171875,0.11419677734375,-0.48193359375,0.84307861328125,5.375,1.6875,-0.5,0.0185546875,-0.47216796875,0.91845703125
86,1597982664954675,-0.208740234375,0.11431884765625,-0.482177734375,0.84307861328125,3.9375,2.875,-0.875,0.00048828125,-0.466796875,0.9072265625
87,1597982664975673,-0.20849609375,0.1148681640625,-0.4822998046875,0.843017578125,-0.5,2.4375,-0.25,-0.005859375,-0.4716796875,0.90185546875
88,1597982664997683,-0.20855712890625,0.1148681640625,-0.4822998046875,0.843017578125,-0.3125,0.875,-0.3125,0.00732421875,-0.484375,0.912109375
89,1597982665014673,-0.20831298828125,0.11468505859375,-0.482421875,0.843017578125,1.875,0.125,-0.5,0.0107421875,-0.47900390625,0.91259765625
90,1597982665035673,-0.2076416015625,0.11444091796875,-0.48260498046875,0.8431396484375,3.625,0.8125,-0.4375,0.0078125,-0.4677734375,0.908203125
91,1597982665057684,-0.207275390625,0.114501953125,-0.482666015625,0.84320068359375,1.375,0.625,-0.1875,-0.001953125,-0.46240234375,0.90673828125
92,1597982665074673,-0.207275390625,0.114501953125,-0.482666015625,0.84320068359375,-0.875,0.25,-0.3125,0.0048828125,-0.4638671875,0.90625
93,1597982665095673,-0.207275390625,0.114501953125,-0.482666015625,0.84320068359375,-0.5625,0.6875,-0.1875,0.0087890625,-0.4736328125,0.912109375
94,1597982665117683,-0.20709228515625,0.11456298828125,-0.482666015625,0.84320068359375,1.25,0.9375,0.125,0.00537109375,-0.4814453125,0.9072265625
95,1597982665135674,-0.2066650390625,0.114501953125,-0.48272705078125,0.84332275390625,2.5625,0.75,0.1875,0.00537109375,-0.47119140625,0.904296875
96,1597982665155674,-0.20611572265625,0.1143798828125,-0.48272705078125,0.84344482421875,3.0,0.5625,0.25,0.00439453125,-0.4658203125,0.90869140625
97,1597982665177678,-0.20556640625,0.114013671875,-0.4827880859375,0.84356689453125,2.875,0.0625,0.0,0.0078125,-0.45751953125,0.91552734375
98,1597982665195674,-0.20538330078125,0.11431884765625,-0.48297119140625,0.843505859375,-0.125,1.25,-0.75,-0.00732421875,-0.46044921875,0.90673828125
99,1597982665215673,-0.205810546875,0.114501953125,-0.48291015625,0.8433837890625,-2.625,-0.3125,-0.1875,0.00244140625,-0.47216796875,0.91162109375
100,1597982665237683,-0.205810546875,0.114501953125,-0.48291015625,0.8433837890625,-0.875,0.0625,-0.3125,0.0048828125,-0.47509765625,0.91064453125
