index,timestamp,orientation_x,orientation_y,orientation_z,orientation_w,gyroscope_x,gyroscope_y,gyroscope_z,acceleration_x,acceleration_y,acceleration_z
0,1596964054848673,-0.12335205078125,0.0389404296875,-0.7222900390625,-0.679443359375,-1.5,-0.875,0.625,0.20654296875,0.09814453125,0.97802734375
1,1596964054870672,-0.1231689453125,0.03955078125,-0.72235107421875,-0.679443359375,-1.125,-2.1875,0.125,0.2197265625,0.078125,0.96240234375
2,1596964054893681,-0.12322998046875,0.0400390625,-0.7225341796875,-0.67913818359375,0.375,-2.0625,1.75,0.23291015625,0.08056640625,0.958984375
3,1596964054908682,-0.12359619140625,0.0399169921875,-0.72271728515625,-0.67889404296875,3.625,-2.25,1.375,0.2138671875,0.0859375,0.966796875
4,1596964054929672,-0.124755859375,0.03948974609375,-0.72265625,-0.67877197265625,7.25,-5.1875,-0.1875,0.19921875,0.09912109375,0.9619140625
5,1596964054946672,-0.125732421875,0.03985595703125,-0.72259521484375,-0.67864990234375,3.375,-5.5625,0.0,0.23388671875,0.09228515625,0.9462890625
6,1596964054968678,-0.12628173828125,0.0406494140625,-0.72265625,-0.67840576171875,-0.3125,-3.875,1.1875,0.25439453125,0.10107421875,0.93994140625
7,1596964054990672,-0.12652587890625,0.041015625,-0.72259521484375,-0.67840576171875,0.5,-3.1875,-0.3125,0.2216796875,0.09326171875,0.94677734375
8,1596964055006675,-0.12689208984375,0.04119873046875,-0.7225341796875,-0.67840576171875,1.625,-3.125,-0.1875,0.22314453125,0.09375,0.94921875
9,1596964055028672,-0.1275634765625,0.04119873046875,-0.7225341796875,-0.67828369140625,4.375,-3.3125,-0.125,0.23046875,0.0859375,0.95263671875
10,1596964055049677,-0.12835693359375,0.04046630859375,-0.72259521484375,-0.6781005859375,8.875,-0.875,-0.1875,0.23681640625,0.080078125,0.982421875
11,1596964055066674,-0.1297607421875,0.03857421875,-0.723388671875,-0.6771240234375,19.75,-0.375,4.25,0.205078125,0.03955078125,0.95654296875
12,1596964055088674,-0.13360595703125,0.0350341796875,-0.72381591796875,-0.6761474609375,29.375,-2.5625,2.4375,0.2265625,0.13818359375,0.927734375
13,1596964055110671,-0.13702392578125,0.03204345703125,-0.723388671875,-0.676025390625,19.375,-2.375,-2.5,0.244140625,0.22900390625,0.92919921875
14,1596964055126673,-0.13763427734375,0.0306396484375,-0.7232666015625,-0.67608642578125,5.9375,0.3125,-1.25,0.205078125,0.169921875,0.96484375
15,1596964055148672,-0.13629150390625,0.03021240234375,-0.7249755859375,-0.674560546875,7.5625,5.875,10.8125,0.20361328125,-0.00244140625,0.966796875
16,1596964055169674,-0.14093017578125,0.02520751953125,-0.72607421875,-0.672607421875,47.3125,0.1875,5.625,0.24560546875,0.05859375,1.00439453125
17,1596964055185671,-0.146484375,0.01861572265625,-0.72430419921875,-0.673583984375,42.1875,-3.125,-14.875,0.18603515625,0.2587890625,1.00341796875
18,1596964055208689,-0.14886474609375,0.01690673828125,-0.7235107421875,-0.6739501953125,8.5625,-9.25,-3.4375,0.15869140625,0.28759765625,0.95654296875
19,1596964055229673,-0.14337158203125,0.02301025390625,-0.725341796875,-0.6729736328125,-42.75,-1.0625,16.25,0.2265625,0.12744140625,1.01318359375
20,1596964055245673,-0.13677978515625,0.02777099609375,-0.727783203125,-0.6715087890625,-42.1875,5.75,20.75,0.18310546875,0.13037109375,1.0361328125
21,1596964055270671,-0.134521484375,0.03045654296875,-0.73095703125,-0.66845703125,-14.6875,-1.125,27.25,0.20361328125,0.1015625,0.9755859375
22,1596964055291672,-0.1358642578125,0.03173828125,-0.7333984375,-0.6654052734375,9.0625,-5.8125,20.8125,0.29931640625,0.0400390625,0.98779296875
23,1596964055305675,-0.1422119140625,0.02655029296875,-0.7353515625,-0.662109375,50.5,0.875,14.5,0.3583984375,0.1357421875,1.0126953125
24,1596964055328678,-0.15020751953125,0.01373291015625,-0.73699951171875,-0.658935546875,83.25,22.8125,7.9375,0.37158203125,0.2587890625,1.0732421875
25,1596964055351673,-0.154541015625,-0.001708984375,-0.73828125,-0.6566162109375,74.25,41.625,3.0,0.255859375,0.35986328125,1.02392578125
26,1596964055365672,-0.1552734375,-0.01568603515625,-0.73974609375,-0.65460205078125,58.4375,45.25,4.1875,0.15478515625,0.3291015625,1.06982421875
27,1596964055388672,-0.15447998046875,-0.02691650390625,-0.73895263671875,-0.65533447265625,42.5,33.125,-12.9375,0.06689453125,0.32470703125,1.18212890625
28,1596964055411676,-0.15606689453125,-0.03826904296875,-0.73565673828125,-0.6580810546875,46.75,19.3125,-29.5625,0.02490234375,0.40087890625,1.1748046875
29,1596964055425671,-0.161376953125,-0.04925537109375,-0.73175048828125,-0.660400390625,64.625,10.3125,-31.625,0.125,0.33251953125,1.08544921875
30,1596964055448683,-0.16778564453125,-0.0584716796875,-0.72869873046875,-0.66143798828125,68.5,1.375,-22.6875,0.1181640625,0.22802734375,0.9521484375
31,1596964055471671,-0.177490234375,-0.0657958984375,-0.725341796875,-0.66192626953125,79.875,-19.0625,-19.625,0.11474609375,0.1220703125,0.86767578125
32,1596964055485677,-0.19183349609375,-0.07666015625,-0.71893310546875,-0.66375732421875,102.4375,-23.5,-38.6875,0.29736328125,0.2177734375,0.8779296875
33,1596964055509678,-0.20684814453125,-0.08837890625,-0.7103271484375,-0.66705322265625,99.4375,-24.125,-53.375,0.2236328125,0.455078125,0.8046875
34,1596964055531673,-0.21929931640625,-0.09503173828125,-0.703369140625,-0.66949462890625,71.875,-32.125,-38.9375,0.1875,0.400390625,0.71435546875
35,1596964055552674,-0.22821044921875,-0.0968017578125,-0.6986083984375,-0.6712646484375,46.375,-31.125,-26.125,0.22705078125,0.2705078125,0.69580078125
36,1596964055568685,-0.23638916015625,-0.0992431640625,-0.69403076171875,-0.6728515625,49.5,-25.4375,-26.6875,0.23779296875,0.23876953125,0.6953125
37,1596964055591674,-0.24462890625,-0.1046142578125,-0.68914794921875,-0.674072265625,59.6875,-13.6875,-30.75,0.2685546875,0.337890625,0.78173828125
38,1596964055612681,-0.25164794921875,-0.1121826171875,-0.68487548828125,-0.6746826171875,59.75,-3.4375,-26.375,0.20361328125,0.43896484375,0.78759765625
39,1596964055628679,-0.25677490234375,-0.11663818359375,-0.68157958984375,-0.67529296875,38.5,-10.5,-16.5625,0.12451171875,0.435546875,0.71630859375
40,1596964055651674,-0.26068115234375,-0.117431640625,-0.678466796875,-0.6767578125,18.6875,-17.375,-17.0625,0.171875,0.41552734375,0.7021484375
41,1596964055672679,-0.2650146484375,-0.11907958984375,-0.6754150390625,-0.67791748046875,25.1875,-11.8125,-18.75,0.24267578125,0.43603515625,0.74462890625
42,1596964055688675,-0.26953125,-0.12249755859375,-0.67279052734375,-0.6781005859375,28.625,-6.1875,-13.4375,0.20458984375,0.529296875,0.7236328125
43,1596964055711672,-0.2725830078125,-0.1239013671875,-0.67059326171875,-0.67877197265625,13.25,-8.875,-10.875,0.1923828125,0.52685546875,0.69091796875
44,1596964055732674,-0.2738037109375,-0.123291015625,-0.66925048828125,-0.67974853515625,0.75,-8.3125,-7.875,0.197265625,0.47900390625,0.69873046875
45,1596964055748681,-0.27484130859375,-0.12371826171875,-0.6683349609375,-0.68017578125,7.5,-3.375,-6.25,0.197265625,0.4716796875,0.77001953125
46,1596964055771675,-0.2764892578125,-0.12591552734375,-0.6676025390625,-0.6798095703125,17.375,1.6875,-4.4375,0.1943359375,0.49072265625,0.77099609375
47,1596964055792675,-0.27838134765625,-0.1280517578125,-0.6669921875,-0.67919921875,14.375,0.6875,-1.625,0.18310546875,0.54638671875,0.744140625
48,1596964055808678,-0.2784423828125,-0.12786865234375,-0.66680908203125,-0.679443359375,-1.1875,-2.5,-0.4375,0.166015625,0.51904296875,0.755859375
49,1596964055831680,-0.27886962890625,-0.12744140625,-0.66656494140625,-0.6795654296875,1.875,-5.375,0.3125,0.16162109375,0.49658203125,0.78369140625
50,1596964055852671,-0.28033447265625,-0.1285400390625,-0.66595458984375,-0.6793212890625,10.5,-2.375,-2.0625,0.19580078125,0.5537109375,0.80908203125
51,1596964055868673,-0.28192138671875,-0.13031005859375,-0.6656494140625,-0.67864990234375,12.6875,-2.5,2.25,0.1298828125,0.55419921875,0.77001953125
52,1596964055891671,-0.28216552734375,-0.12982177734375,-0.6656494140625,-0.67864990234375,-0.375,-5.375,2.6875,0.14013671875,0.51513671875,0.75439453125
53,1596964055912678,-0.282470703125,-0.12890625,-0.66558837890625,-0.6787109375,0.0625,-6.75,1.6875,0.16064453125,0.486328125,0.77392578125
54,1596964055928678,-0.283935546875,-0.12939453125,-0.66510009765625,-0.678466796875,7.4375,-5.3125,0.3125,0.18115234375,0.56201171875,0.7890625
55,1596964055951670,-0.28509521484375,-0.12994384765625,-0.6649169921875,-0.6781005859375,7.0,-4.4375,2.0,0.162109375,0.55224609375,0.7900390625
56,1596964055972678,-0.2857666015625,-0.1292724609375,-0.66497802734375,-0.67791748046875,0.8125,-6.875,4.0,0.16650390625,0.54052734375,0.791015625
57,1596964055988676,-0.285888671875,-0.12823486328125,-0.6650390625,-0.677978515625,-0.875,-6.3125,1.9375,0.171875,0.50732421875,0.79638671875
58,1596964056011673,-0.28619384765625,-0.12786865234375,-0.6646728515625,-0.67828369140625,-0.8125,-4.9375,-0.1875,0.17578125,0.55419921875,0.791015625
59,1596964056032671,-0.2860107421875,-0.12762451171875,-0.6641845703125,-0.6788330078125,-4.375,-3.3125,-2.125,0.1748046875,0.59228515625,0.79931640625
60,1596964056048672,-0.2855224609375,-0.12664794921875,-0.66387939453125,-0.6795654296875,-7.5,-5.25,-0.875,0.16748046875,0.5654296875,0.7958984375
61,1596964056071675,-0.28570556640625,-0.1251220703125,-0.663818359375,-0.67987060546875,-5.75,-7.0625,1.0,0.19091796875,0.513671875,0.744140625
62,1596964056092671,-0.28564453125,-0.12420654296875,-0.663818359375,-0.6800537109375,-2.6875,-4.1875,0.8125,0.19091796875,0.50634765625,0.77001953125
63,1596964056108679,-0.28631591796875,-0.1248779296875,-0.66357421875,-0.67987060546875,6.5,-0.6875,-0.625,0.1982421875,0.54150390625,0.80859375
64,1596964056131675,-0.28717041015625,-0.126220703125,-0.66314697265625,-0.6796875,7.375,1.4375,-2.0,0.20947265625,0.59423828125,0.8154296875
65,1596964056152675,-0.28680419921875,-0.12646484375,-0.66290283203125,-0.67999267578125,-3.4375,-0.6875,-0.625,0.1611328125,0.58740234375,0.77685546875
66,1596964056168674,-0.285888671875,-0.125244140625,-0.66314697265625,-0.680419921875,-8.625,-2.0,0.875,0.1826171875,0.49951171875,0.73876953125
67,1596964056191672,-0.2855224609375,-0.125,-0.66314697265625,-0.6805419921875,-1.6875,0.5625,-0.5,0.1982421875,0.51513671875,0.7705078125
68,1596964056212678,-0.2855224609375,-0.12603759765625,-0.6629638671875,-0.68060302734375,2.75,2.8125,-1.8125,0.1875,0.56640625,0.7939453125
69,1596964056228679,-0.2847900390625,-0.12689208984375,-0.66290283203125,-0.6807861328125,-0.125,4.5,-2.0625,0.1884765625,0.57373046875,0.82373046875
70,1596964056251673,-0.28369140625,-0.12677001953125,-0.6630859375,-0.68109130859375,-4.625,1.625,0.0625,0.16162109375,0.52392578125,0.78759765625
71,1596964056273681,-0.28314208984375,-0.1260986328125,-0.6630859375,-0.68145751953125,-3.875,-0.875,-0.8125,0.1875,0.5009765625,0.7646484375
72,1596964056288680,-0.28338623046875,-0.1270751953125,-0.6627197265625,-0.6815185546875,3.0,1.1875,-2.0,0.173828125,0.5537109375,0.759765625
73,1596964056311674,-0.28338623046875,-0.12823486328125,-0.6624755859375,-0.6815185546875,1.875,3.3125,-1.5625,0.17724609375,0.57470703125,0.77294921875
74,1596964056333672,-0.2822265625,-0.1287841796875,-0.66265869140625,-0.68170166015625,-2.1875,4.8125,-0.625,0.16064453125,0.53759765625,0.796875
75,1596964056348673,-0.2808837890625,-0.128662109375,-0.66302490234375,-0.6820068359375,-4.875,3.0625,0.25,0.16259765625,0.5146484375,0.79833984375
76,1596964056371678,-0.28021240234375,-0.12884521484375,-0.6629638671875,-0.6822509765625,-1.25,1.5,-1.25,0.16064453125,0.513671875,0.7724609375
77,1596964056393672,-0.2802734375,-0.12890625,-0.6629638671875,-0.6822509765625,0.3125,-0.3125,-0.6875,0.17138671875,0.53955078125,0.75439453125
78,1596964056408672,-0.280517578125,-0.12945556640625,-0.66278076171875,-0.6822509765625,1.3125,0.6875,-0.8125,0.18310546875,0.556640625,0.7666015625
79,1596964056431673,-0.2802734375,-0.13018798828125,-0.66302490234375,-0.681884765625,2.0,4.3125,1.0625,0.18603515625,0.54150390625,0.7841796875
80,1596964056453672,-0.2801513671875,-0.131103515625,-0.66339111328125,-0.681396484375,3.375,3.5,2.875,0.15673828125,0.53271484375,0.7685546875
81,1596964056468671,-0.28082275390625,-0.13189697265625,-0.663330078125,-0.6810302734375,4.1875,-0.5625,1.4375,0.15673828125,0.54345703125,0.73828125
82,1596964056491674,-0.2823486328125,-0.13214111328125,-0.6627197265625,-0.6810302734375,1.8125,-5.5625,-0.4375,0.17236328125,0.58447265625,0.70361328125
83,1596964056513674,-0.2816162109375,-0.129150390625,-0.66259765625,-0.68194580078125,-21.0625,-6.5625,-0.5,0.22412109375,0.5693359375,0.693359375
84,1596964056535673,-0.279296875,-0.12469482421875,-0.6627197265625,-0.68359375,-36.375,-6.125,-0.8125,0.21435546875,0.5634765625,0.63818359375
85,1596964056551671,-0.275634765625,-0.1163330078125,-0.66253662109375,-0.686767578125,-59.375,-17.25,-2.9375,0.203125,0.47021484375,0.50537109375
86,1596964056573680,-0.267578125,-0.103515625,-0.6640625,-0.69049072265625,-86.3125,-13.4375,2.625,0.2724609375,0.36572265625,0.62451171875
87,1596964056594672,-0.25555419921875,-0.09033203125,-0.6680908203125,-0.6929931640625,-92.6875,-1.375,16.3125,0.2177734375,0.2822265625,0.849609375
88,1596964056611672,-0.2467041015625,-0.08184814453125,-0.67254638671875,-0.6929931640625,-56.875,1.75,24.75,0.1376953125,0.240234375,0.86328125
89,1596964056633673,-0.24322509765625,-0.07720947265625,-0.67572021484375,-0.691650390625,-24.5625,-6.3125,24.125,0.10400390625,0.2998046875,0.81640625
90,1596964056654751,-0.24114990234375,-0.07080078125,-0.6783447265625,-0.69049072265625,-31.1875,-18.0625,25.0,0.12060546875,0.353515625,0.76953125
91,1596964056671671,-0.23651123046875,-0.05975341796875,-0.6824951171875,-0.6890869140625,-54.625,-18.5625,33.1875,0.236328125,0.2734375,0.814453125
92,1596964056693676,-0.23077392578125,-0.04962158203125,-0.68756103515625,-0.686767578125,-56.5625,-6.875,38.0625,0.291015625,0.30322265625,0.86865234375
93,1596964056715672,-0.2264404296875,-0.0433349609375,-0.69134521484375,-0.684814453125,-41.875,-1.5625,29.875,0.2607421875,0.39599609375,0.89013671875
94,1596964056731674,-0.220703125,-0.03643798828125,-0.6943359375,-0.68408203125,-52.0625,-6.125,25.25,0.16748046875,0.3935546875,0.90283203125
95,1596964056753675,-0.2135009765625,-0.025634765625,-0.69793701171875,-0.6832275390625,-67.75,-12.9375,30.1875,0.20947265625,0.2861328125,0.93701171875
96,1596964056775680,-0.2098388671875,-0.01702880859375,-0.700927734375,-0.6815185546875,-42.1875,-15.4375,27.125,0.26708984375,0.2333984375,0.91357421875
97,1596964056792681,-0.20880126953125,-0.01171875,-0.70343017578125,-0.67938232421875,-22.0,-13.4375,24.3125,0.283203125,0.294921875,0.9453125
98,1596964056813680,-0.20831298828125,-0.007568359375,-0.70574951171875,-0.6771240234375,-15.6875,-14.3125,23.875,0.25732421875,0.30126953125,0.96875
99,1596964056835675,-0.2091064453125,-0.0029296875,-0.7080078125,-0.674560546875,-10.625,-19.625,24.3125,0.28759765625,0.267578125,0.95849609375
100,1596964056851674,-0.2109375,0.0030517578125,-0.7100830078125,-0.671875,-12.5,-25.5625,24.9375,0.3251953125,0.2412109375,0.865234375
