index,timestamp,orientation_x,orientation_y,orientation_z,orientation_w,gyroscope_x,gyroscope_y,gyroscope_z,acceleration_x,acceleration_y,acceleration_z
0,1597651974017514,-0.141845703125,0.10577392578125,-0.51922607421875,0.83612060546875,1.25,-2.9375,0.0625,-0.0400390625,-0.3427734375,0.9716796875
1,1597651974033964,-0.14208984375,0.1055908203125,-0.5191650390625,0.83612060546875,-0.5625,-3.25,-0.3125,-0.05322265625,-0.35302734375,0.95703125
2,1597651974056503,-0.142578125,0.10504150390625,-0.519287109375,0.83599853515625,-1.1875,-3.625,-1.8125,-0.02490234375,-0.35302734375,0.95361328125
3,1597651974077694,-0.14312744140625,0.10467529296875,-0.51953125,0.8358154296875,-0.625,-3.3125,-2.3125,-0.02783203125,-0.361328125,0.9384765625
4,1597651974093506,-0.14361572265625,0.1041259765625,-0.5196533203125,0.83575439453125,-1.375,-2.625,-1.1875,-0.00732421875,-0.34814453125,0.9716796875
5,1597651974115496,-0.14385986328125,0.10430908203125,-0.51971435546875,0.83563232421875,-2.9375,-0.8125,-0.75,-0.0419921875,-0.3447265625,0.9580078125
6,1597651974138507,-0.14495849609375,0.10467529296875,-0.51947021484375,0.8355712890625,-5.4375,-2.5625,-0.125,-0.041015625,-0.37646484375,0.95703125
7,1597651974153691,-0.1453857421875,0.10467529296875,-0.51953125,0.83544921875,-0.4375,-1.8125,-0.6875,-0.03076171875,-0.38330078125,0.9482421875
8,1597651974176501,-0.145263671875,0.1041259765625,-0.519775390625,0.83538818359375,2.0,-2.1875,-2.0,-0.02734375,-0.35205078125,0.94482421875
9,1597651974198497,-0.145263671875,0.1036376953125,-0.51983642578125,0.83538818359375,0.25,-1.8125,-0.6875,-0.0166015625,-0.3427734375,0.962890625
10,1597651974213896,-0.14581298828125,0.103759765625,-0.519775390625,0.8353271484375,-3.3125,-1.25,0.0625,-0.02587890625,-0.3583984375,0.96240234375
11,1597651974235894,-0.146484375,0.10418701171875,-0.5194091796875,0.83538818359375,-3.4375,-0.875,1.3125,-0.03271484375,-0.37939453125,0.95458984375
12,1597651974259119,-0.14630126953125,0.10400390625,-0.51947021484375,0.83544921875,1.875,-0.75,-0.125,-0.02685546875,-0.37109375,0.96142578125
13,1597651974273896,-0.14593505859375,0.10369873046875,-0.51953125,0.83544921875,1.875,-0.625,-0.4375,-0.02490234375,-0.33984375,0.94384765625
14,1597651974295895,-0.146240234375,0.103515625,-0.51953125,0.83544921875,-2.0625,-1.1875,-0.125,-0.0107421875,-0.34521484375,0.95361328125
15,1597651974319547,-0.14666748046875,0.1036376953125,-0.519287109375,0.83551025390625,-1.875,-1.0625,0.875,-0.0263671875,-0.3662109375,0.9521484375
16,1597651974332799,-0.14666748046875,0.1036376953125,-0.519287109375,0.83551025390625,0.25,-0.1875,0.3125,-0.025390625,-0.36083984375,0.95751953125
17,1597651974356685,-0.1466064453125,0.1036376953125,-0.519287109375,0.83551025390625,-0.0625,-0.6875,-0.125,-0.02587890625,-0.35205078125,0.95751953125
18,1597651974378557,-0.1470947265625,0.1038818359375,-0.51934814453125,0.8353271484375,-3.8125,-0.4375,-1.0,-0.0263671875,-0.35400390625,0.955078125
19,1597651974392550,-0.14776611328125,0.104248046875,-0.51959228515625,0.8350830078125,-4.25,0.3125,-1.875,-0.0185546875,-0.36376953125,0.94677734375
20,1597651974416187,-0.1483154296875,0.10491943359375,-0.51947021484375,0.8349609375,-2.75,1.5625,0.5,-0.02001953125,-0.38671875,0.93505859375
21,1597651974440197,-0.14837646484375,0.10504150390625,-0.51898193359375,0.835205078125,1.25,0.1875,3.375,-0.01318359375,-0.38818359375,0.93505859375
22,1597651974459381,-0.1475830078125,0.10467529296875,-0.51837158203125,0.83575439453125,6.8125,-1.5,4.25,-0.04248046875,-0.38330078125,0.93603515625
23,1597651974476335,-0.14569091796875,0.103515625,-0.51824951171875,0.83636474609375,10.4375,0.5,2.6875,-0.013671875,-0.33447265625,0.99169921875
24,1597651974498191,-0.14459228515625,0.10382080078125,-0.51739501953125,0.8370361328125,4.125,3.0625,6.75,-0.03173828125,-0.35498046875,0.96533203125
25,1597651974512850,-0.1451416015625,0.104736328125,-0.5166015625,0.8372802734375,-4.5625,0.5625,4.5,-0.048828125,-0.369140625,0.935546875
26,1597651974535843,-0.14373779296875,0.104248046875,-0.51666259765625,0.8375244140625,7.8125,1.3125,0.6875,-0.03173828125,-0.36279296875,0.98876953125
27,1597651974558845,-0.14105224609375,0.10369873046875,-0.51702880859375,0.83782958984375,11.9375,5.75,0.1875,-0.02685546875,-0.3134765625,0.9892578125
28,1597651974573011,-0.14068603515625,0.10455322265625,-0.51708984375,0.8377685546875,-3.5,5.6875,0.6875,-0.0244140625,-0.3193359375,0.97265625
29,1597651974596376,-0.140869140625,0.1060791015625,-0.51763916015625,0.83721923828125,-5.5,7.375,-3.5,-0.03369140625,-0.345703125,0.93359375
30,1597651974618883,-0.1396484375,0.106689453125,-0.51922607421875,0.83636474609375,2.6875,9.375,-8.4375,-0.01708984375,-0.32666015625,0.9541015625
31,1597651974639840,-0.13848876953125,0.1077880859375,-0.5206298828125,0.8355712890625,0.6875,11.3125,-7.1875,-0.0224609375,-0.31005859375,0.93017578125
32,1597651974655867,-0.13983154296875,0.1097412109375,-0.5213623046875,0.8345947265625,-11.8125,5.4375,-6.25,-0.0517578125,-0.35791015625,0.92431640625
33,1597651974679052,-0.140869140625,0.11114501953125,-0.5224609375,0.83355712890625,-9.0,6.0625,-7.6875,-0.02490234375,-0.3623046875,0.95263671875
34,1597651974699301,-0.14154052734375,0.112548828125,-0.5233154296875,0.83270263671875,-6.625,5.0,-6.25,-0.0546875,-0.3642578125,0.921875
35,1597651974716102,-0.1429443359375,0.113525390625,-0.5234375,0.832275390625,-5.6875,0.375,-1.875,-0.04736328125,-0.4169921875,0.92529296875
36,1597651974740302,-0.14251708984375,0.11370849609375,-0.52386474609375,0.83209228515625,1.875,2.5,-2.125,-0.04052734375,-0.37255859375,0.95849609375
37,1597651974759309,-0.14239501953125,0.114501953125,-0.52386474609375,0.83197021484375,-1.3125,3.375,-0.125,-0.0556640625,-0.3681640625,0.94091796875
38,1597651974776288,-0.1427001953125,0.11541748046875,-0.52362060546875,0.83197021484375,-3.25,2.375,1.625,-0.05517578125,-0.3828125,0.9501953125
39,1597651974798294,-0.142822265625,0.11572265625,-0.523193359375,0.8321533203125,0.375,0.75,2.625,-0.04541015625,-0.38916015625,0.92724609375
40,1597651974819412,-0.14154052734375,0.1153564453125,-0.523193359375,0.8323974609375,6.375,1.5625,1.375,-0.04736328125,-0.353515625,0.9599609375
41,1597651974836429,-0.140869140625,0.1156005859375,-0.52301025390625,0.8326416015625,1.9375,2.125,1.8125,-0.0576171875,-0.3564453125,0.96240234375
42,1597651974858286,-0.1407470703125,0.1156005859375,-0.52276611328125,0.832763671875,-0.1875,0.1875,1.6875,-0.048828125,-0.3583984375,0.96728515625
43,1597651974880283,-0.139892578125,0.11541748046875,-0.522705078125,0.8330078125,4.5,2.3125,1.6875,-0.0302734375,-0.35546875,0.94677734375
44,1597651974896277,-0.138671875,0.11529541015625,-0.5224609375,0.8333740234375,5.1875,3.4375,3.0,-0.0400390625,-0.3486328125,0.9716796875
45,1597651974918792,-0.13751220703125,0.115234375,-0.5220947265625,0.833740234375,4.4375,2.4375,3.4375,-0.052734375,-0.345703125,0.96484375
46,1597651974939661,-0.13629150390625,0.11517333984375,-0.52178955078125,0.83416748046875,6.5625,3.125,3.5625,-0.044921875,-0.3564453125,0.95556640625
47,1597651974955648,-0.1351318359375,0.11541748046875,-0.52166748046875,0.83441162109375,4.75,3.75,2.3125,-0.0615234375,-0.35205078125,0.9541015625
48,1597651974978653,-0.13433837890625,0.11572265625,-0.52142333984375,0.83465576171875,3.0,3.0625,2.25,-0.06298828125,-0.36083984375,0.96240234375
49,1597651974999679,-0.1334228515625,0.1156005859375,-0.5213623046875,0.8348388671875,4.1875,2.0,1.25,-0.0546875,-0.337890625,0.95361328125
50,1597651975015822,-0.13262939453125,0.11541748046875,-0.521484375,0.83489990234375,3.9375,2.0625,0.1875,-0.046875,-0.33447265625,0.951171875
51,1597651975038818,-0.13201904296875,0.1156005859375,-0.5216064453125,0.8349609375,1.9375,2.75,0.0625,-0.0556640625,-0.34619140625,0.95654296875
52,1597651975059831,-0.13153076171875,0.11566162109375,-0.52178955078125,0.83489990234375,2.1875,1.3125,-0.75,-0.06640625,-0.34521484375,0.9501953125
53,1597651975076246,-0.13092041015625,0.114990234375,-0.52197265625,0.8349609375,4.1875,-1.625,-1.25,-0.06201171875,-0.3271484375,0.9501953125
54,1597651975098824,-0.130126953125,0.11407470703125,-0.52215576171875,0.8350830078125,6.6875,-0.75,-0.0625,-0.03466796875,-0.34033203125,0.94921875
55,1597651975120818,-0.12969970703125,0.1136474609375,-0.52227783203125,0.83514404296875,4.375,-0.8125,-0.5,-0.05517578125,-0.35400390625,0.9501953125
56,1597651975135820,-0.12933349609375,0.1134033203125,-0.52288818359375,0.8348388671875,2.0625,-1.3125,-4.25,-0.083984375,-0.33349609375,0.95556640625
57,1597651975158835,-0.1295166015625,0.11273193359375,-0.523681640625,0.83441162109375,1.5625,-3.875,-6.1875,-0.0703125,-0.34228515625,0.953125
58,1597651975181822,-0.1295166015625,0.111572265625,-0.5244140625,0.8341064453125,3.375,-3.125,-4.8125,-0.0244140625,-0.32568359375,0.94140625
59,1597651975196002,-0.12939453125,0.11077880859375,-0.5250244140625,0.8338623046875,2.625,-1.5625,-3.9375,-0.03125,-0.3271484375,0.95166015625
60,1597651975218781,-0.12933349609375,0.110595703125,-0.52545166015625,0.8336181640625,1.5,-0.1875,-2.6875,-0.0498046875,-0.34912109375,0.95361328125
61,1597651975241782,-0.129150390625,0.110595703125,-0.525634765625,0.83349609375,1.875,0.25,-1.3125,-0.0556640625,-0.35205078125,0.95068359375
62,1597651975255778,-0.12890625,0.11102294921875,-0.52569580078125,0.83349609375,1.9375,0.6875,-0.3125,-0.080078125,-0.36376953125,0.95166015625
63,1597651975278782,-0.12884521484375,0.11102294921875,-0.52587890625,0.8333740234375,0.5625,0.25,-1.5,-0.05322265625,-0.34423828125,0.96728515625
64,1597651975300916,-0.12890625,0.11102294921875,-0.52587890625,0.8333740234375,0.1875,0.3125,0.1875,-0.05517578125,-0.3544921875,0.9619140625
65,1597651975315789,-0.12890625,0.111083984375,-0.52587890625,0.8333740234375,0.125,-0.25,-0.75,-0.0654296875,-0.35693359375,0.96875
66,1597651975338782,-0.12872314453125,0.1109619140625,-0.5257568359375,0.83343505859375,1.875,-0.4375,0.75,-0.0537109375,-0.3447265625,0.94775390625
67,1597651975361073,-0.12847900390625,0.111083984375,-0.525634765625,0.83355712890625,0.6875,1.0,1.1875,-0.05322265625,-0.33642578125,0.962890625
68,1597651975375303,-0.12847900390625,0.111083984375,-0.525634765625,0.83355712890625,-0.3125,0.25,0.875,-0.05224609375,-0.33349609375,0.947265625
69,1597651975398064,-0.12847900390625,0.111083984375,-0.525634765625,0.83355712890625,-0.5625,0.8125,0.875,-0.04248046875,-0.33349609375,0.95166015625
70,1597651975420863,-0.1285400390625,0.111328125,-0.52532958984375,0.83367919921875,-0.9375,0.8125,2.0,-0.05078125,-0.345703125,0.966796875
71,1597651975434867,-0.1285400390625,0.11138916015625,-0.52532958984375,0.83367919921875,0.5,-0.1875,0.6875,-0.068359375,-0.341796875,0.9521484375
72,1597651975459136,-0.12841796875,0.11090087890625,-0.52545166015625,0.833740234375,1.0625,-1.25,-0.5625,-0.0419921875,-0.32080078125,0.962890625
73,1597651975480860,-0.12841796875,0.11083984375,-0.52545166015625,0.833740234375,-0.875,0.25,0.125,-0.04296875,-0.3271484375,0.95458984375
74,1597651975494863,-0.12841796875,0.11083984375,-0.52545166015625,0.833740234375,-0.5625,-0.25,0.0625,-0.05224609375,-0.345703125,0.9619140625
75,1597651975518861,-0.12835693359375,0.110595703125,-0.52557373046875,0.83367919921875,1.3125,-1.5,-0.8125,-0.05517578125,-0.33642578125,0.947265625
76,1597651975541863,-0.12847900390625,0.1103515625,-0.5257568359375,0.8336181640625,-0.25,-1.875,-1.6875,-0.05859375,-0.330078125,0.95361328125
77,1597651975554867,-0.1290283203125,0.11029052734375,-0.5260009765625,0.8333740234375,-2.5,-1.5,-2.5,-0.046875,-0.33056640625,0.953125
78,1597651975579101,-0.12939453125,0.110107421875,-0.526123046875,0.833251953125,-1.625,-1.0625,-0.9375,-0.03759765625,-0.3388671875,0.9658203125
79,1597651975601237,-0.12945556640625,0.10980224609375,-0.526123046875,0.833251953125,1.25,-1.4375,-0.1875,-0.046875,-0.34423828125,0.96240234375
80,1597651975621862,-0.12939453125,0.10980224609375,-0.526123046875,0.83331298828125,0.9375,0.0625,-0.625,-0.0537109375,-0.32763671875,0.96826171875
81,1597651975638860,-0.12957763671875,0.1099853515625,-0.52606201171875,0.833251953125,-1.75,0.125,0.1875,-0.05126953125,-0.33984375,0.97216796875
82,1597651975661110,-0.12957763671875,0.11004638671875,-0.52606201171875,0.833251953125,0.625,0.875,0.375,-0.0556640625,-0.3544921875,0.96826171875
83,1597651975683860,-0.12939453125,0.11016845703125,-0.52606201171875,0.833251953125,1.125,0.875,-0.0625,-0.0546875,-0.34033203125,0.9501953125
84,1597651975698875,-0.12939453125,0.11016845703125,-0.52606201171875,0.833251953125,-0.375,0.8125,-0.4375,-0.05078125,-0.33740234375,0.9541015625
85,1597651975721130,-0.12939453125,0.11016845703125,-0.52606201171875,0.833251953125,-0.375,0.4375,0.0,-0.05078125,-0.3466796875,0.95361328125
86,1597651975742126,-0.1292724609375,0.11041259765625,-0.52606201171875,0.833251953125,0.75,1.375,0.25,-0.04833984375,-0.34912109375,0.958984375
87,1597651975758122,-0.1292724609375,0.11041259765625,-0.52606201171875,0.833251953125,0.25,0.875,0.125,-0.06298828125,-0.3486328125,0.96337890625
88,1597651975781301,-0.1292724609375,0.11041259765625,-0.52606201171875,0.833251953125,0.25,0.625,-0.5625,-0.0458984375,-0.33642578125,0.95556640625
89,1597651975802123,-0.1292724609375,0.11041259765625,-0.52606201171875,0.833251953125,-0.4375,-0.0625,-0.25,-0.0556640625,-0.33935546875,0.9521484375
90,1597651975818050,-0.1292724609375,0.11041259765625,-0.52606201171875,0.833251953125,-0.25,-0.125,-0.375,-0.05029296875,-0.3359375,0.958984375
91,1597651975841052,-0.12945556640625,0.11029052734375,-0.52606201171875,0.833251953125,-0.875,-1.0625,-0.25,-0.04248046875,-0.33544921875,0.95947265625
92,1597651975862290,-0.12969970703125,0.11053466796875,-0.5260009765625,0.833251953125,-2.0625,-0.3125,0.0625,-0.06201171875,-0.33837890625,0.9638671875
93,1597651975879195,-0.1300048828125,0.11065673828125,-0.52593994140625,0.83319091796875,-1.5625,-1.0,-0.0625,-0.06005859375,-0.34716796875,0.970703125
94,1597651975901071,-0.12982177734375,0.1104736328125,-0.5260009765625,0.833251953125,1.5,-0.75,-0.4375,-0.05224609375,-0.3408203125,0.95654296875
95,1597651975922387,-0.12982177734375,0.11041259765625,-0.5260009765625,0.833251953125,0.375,-0.8125,-0.5625,-0.037109375,-0.32666015625,0.94775390625
96,1597651975938221,-0.12982177734375,0.1103515625,-0.5260009765625,0.833251953125,-0.75,-0.0625,-0.5625,-0.03564453125,-0.3212890625,0.95458984375
97,1597651975961456,-0.12982177734375,0.1103515625,-0.5260009765625,0.833251953125,0.125,0.25,0.4375,-0.04931640625,-0.34130859375,0.96435546875
98,1597651975982238,-0.1295166015625,0.11041259765625,-0.52606201171875,0.833251953125,1.3125,0.0,-0.4375,-0.06787109375,-0.337890625,0.96142578125
99,1597651975998244,-0.12945556640625,0.11029052734375,-0.5262451171875,0.8331298828125,0.3125,-0.8125,-1.625,-0.056640625,-0.32958984375,0.951171875
100,1597651976021399,-0.12982177734375,0.110107421875,-0.52667236328125,0.8328857421875,-1.0625,-0.75,-2.6875,-0.03564453125,-0.33740234375,0.9521484375
