index,timestamp,orientation_x,orientation_y,orientation_z,orientation_w,gyroscope_x,gyroscope_y,gyroscope_z,acceleration_x,acceleration_y,acceleration_z
0,1598009862363333,-0.11297607421875,-0.1934814453125,0.21453857421875,0.95062255859375,5.25,4.75,3.1875,0.31103515625,-0.2880859375,0.91943359375
1,1598009862386349,-0.11212158203125,-0.1923828125,0.215576171875,0.95074462890625,5.5625,3.0625,5.3125,0.30810546875,-0.2880859375,0.9453125
2,1598009862406612,-0.1112060546875,-0.19158935546875,0.21673583984375,0.95074462890625,6.25,1.3125,5.625,0.31396484375,-0.29345703125,0.94384765625
3,1598009862423619,-0.11029052734375,-0.19091796875,0.21771240234375,0.95074462890625,5.375,1.4375,5.125,0.31494140625,-0.27685546875,0.92431640625
4,1598009862445993,-0.1102294921875,-0.19049072265625,0.2183837890625,0.95068359375,0.0,1.5,4.5,0.31640625,-0.271484375,0.91064453125
5,1598009862466620,-0.1116943359375,-0.19061279296875,0.21893310546875,0.95037841796875,-6.5625,0.625,4.25,0.318359375,-0.3173828125,0.91845703125
6,1598009862483726,-0.11407470703125,-0.191162109375,0.21929931640625,0.94989013671875,-9.5,-0.3125,3.5625,0.326171875,-0.3720703125,0.919921875
7,1598009862505614,-0.11541748046875,-0.19140625,0.21942138671875,0.94964599609375,-3.1875,0.625,0.875,0.32568359375,-0.37939453125,0.9091796875
8,1598009862526838,-0.114990234375,-0.19091796875,0.21954345703125,0.94976806640625,4.625,2.3125,0.0,0.31982421875,-0.3330078125,0.91357421875
9,1598009862543612,-0.1138916015625,-0.1900634765625,0.219970703125,0.95001220703125,7.125,2.1875,1.1875,0.3037109375,-0.30029296875,0.92626953125
10,1598009862565616,-0.11273193359375,-0.189453125,0.2203369140625,0.95013427734375,6.6875,0.125,0.875,0.2978515625,-0.296875,0.94482421875
11,1598009862586690,-0.111572265625,-0.18927001953125,0.22052001953125,0.9503173828125,5.5,-1.625,-0.5625,0.30322265625,-0.28759765625,0.935546875
12,1598009862603747,-0.11083984375,-0.18927001953125,0.2205810546875,0.95037841796875,2.5,-1.6875,-0.25,0.3076171875,-0.2763671875,0.927734375
13,1598009862625432,-0.1107177734375,-0.1895751953125,0.22039794921875,0.95037841796875,-1.5,-2.0,-0.625,0.310546875,-0.27490234375,0.919921875
14,1598009862646565,-0.11181640625,-0.19024658203125,0.2203369140625,0.9500732421875,-6.875,-2.1875,0.5625,0.31884765625,-0.3017578125,0.900390625
15,1598009862663526,-0.11248779296875,-0.19122314453125,0.22021484375,0.94989013671875,-6.1875,-4.125,0.25,0.32470703125,-0.2880859375,0.9189453125
16,1598009862686476,-0.11358642578125,-0.19244384765625,0.22039794921875,0.949462890625,-10.4375,-6.6875,2.6875,0.3203125,-0.26806640625,0.94189453125
17,1598009862706649,-0.11590576171875,-0.19354248046875,0.22088623046875,0.94879150390625,-15.0,-4.75,5.625,0.32861328125,-0.3095703125,0.9677734375
18,1598009862723640,-0.11859130859375,-0.194580078125,0.220947265625,0.9482421875,-18.1875,-4.375,3.5625,0.322265625,-0.306640625,0.970703125
19,1598009862745706,-0.121826171875,-0.19580078125,0.22076416015625,0.9476318359375,-24.25,-7.4375,2.5625,0.29638671875,-0.29638671875,1.0283203125
20,1598009862766644,-0.1256103515625,-0.19732666015625,0.22027587890625,0.94696044921875,-25.375,-8.1875,0.125,0.3017578125,-0.35498046875,1.041015625
21,1598009862783226,-0.13043212890625,-0.1990966796875,0.2200927734375,0.94598388671875,-20.8125,-6.6875,0.75,0.32275390625,-0.5107421875,0.9970703125
22,1598009862805595,-0.1279296875,-0.197509765625,0.220703125,0.94647216796875,20.3125,3.1875,-1.125,0.34375,-0.45361328125,1.06689453125
23,1598009862828594,-0.12310791015625,-0.19268798828125,0.2216796875,0.9478759765625,32.4375,15.0625,-0.125,0.3076171875,-0.38134765625,1.1533203125
24,1598009862843593,-0.1231689453125,-0.18670654296875,0.2232666015625,0.94873046875,8.625,25.375,9.6875,0.2744140625,-0.38818359375,1.14501953125
25,1598009862865849,-0.126220703125,-0.1795654296875,0.2247314453125,0.9493408203125,-9.375,29.75,12.3125,0.16259765625,-0.35009765625,1.154296875
26,1598009862888592,-0.13250732421875,-0.17120361328125,0.22332763671875,0.95037841796875,-27.6875,39.4375,-1.25,0.09423828125,-0.36962890625,1.177734375
27,1598009862902722,-0.14031982421875,-0.1640625,0.220947265625,0.9510498046875,-29.375,41.1875,-6.0625,0.15380859375,-0.5107421875,1.11669921875
28,1598009862925784,-0.1422119140625,-0.15582275390625,0.220703125,0.95220947265625,13.625,53.125,3.75,0.3623046875,-0.62646484375,1.142578125
29,1598009862948722,-0.13787841796875,-0.14404296875,0.22235107421875,0.954345703125,44.8125,67.375,14.1875,0.3642578125,-0.423828125,1.0498046875
30,1598009862969825,-0.135009765625,-0.13037109375,0.2237548828125,0.95635986328125,28.5625,78.6875,17.5625,0.3076171875,-0.22119140625,0.97607421875
31,1598009862986438,-0.1378173828125,-0.11749267578125,0.22576904296875,0.9571533203125,-3.625,83.25,26.625,0.310546875,-0.20654296875,0.919921875
32,1598009863008831,-0.1461181640625,-0.10546875,0.22869873046875,0.9566650390625,-25.375,80.25,33.4375,0.21533203125,-0.33984375,0.84033203125
33,1598009863029804,-0.15252685546875,-0.09405517578125,0.23211669921875,0.95599365234375,-12.4375,73.375,34.375,0.18310546875,-0.38720703125,0.8017578125
34,1598009863045796,-0.1544189453125,-0.08270263671875,0.23626708984375,0.95574951171875,15.3125,69.9375,36.1875,0.20751953125,-0.4130859375,0.79931640625
35,1598009863068793,-0.1514892578125,-0.070556640625,0.24078369140625,0.9560546875,40.8125,67.9375,36.3125,0.185546875,-0.35107421875,0.75390625
36,1598009863089792,-0.14617919921875,-0.05865478515625,0.244873046875,0.95660400390625,45.0625,60.125,32.0625,0.11572265625,-0.20263671875,0.74072265625
37,1598009863106109,-0.14312744140625,-0.048583984375,0.24822998046875,0.956787109375,24.6875,52.75,27.125,0.08837890625,-0.13818359375,0.79638671875
38,1598009863128870,-0.144775390625,-0.0408935546875,0.2515869140625,0.9560546875,-0.0625,44.5625,27.1875,0.05078125,-0.2197265625,0.8154296875
39,1598009863149869,-0.14697265625,-0.034912109375,0.2550048828125,0.95501708984375,-3.0625,34.3125,26.0625,0.013671875,-0.25927734375,0.8115234375
40,1598009863165869,-0.1483154296875,-0.03045654296875,0.257568359375,0.95428466796875,-1.1875,25.875,19.75,0.01171875,-0.2451171875,0.79345703125
41,1598009863188869,-0.148193359375,-0.02728271484375,0.2591552734375,0.9539794921875,4.5,18.875,12.625,0.0263671875,-0.2421875,0.81103515625
42,1598009863209007,-0.14691162109375,-0.0245361328125,0.26007080078125,0.9539794921875,10.1875,15.4375,8.0625,0.01953125,-0.24365234375,0.84814453125
43,1598009863226009,-0.14447021484375,-0.021484375,0.260986328125,0.9542236328125,14.75,12.6875,6.6875,-0.02587890625,-0.2158203125,0.88818359375
44,1598009863248011,-0.1429443359375,-0.01953125,0.26129150390625,0.95440673828125,10.0,7.1875,2.625,-0.05078125,-0.23681640625,0.86669921875
45,1598009863269208,-0.1424560546875,-0.019775390625,0.2601318359375,0.95477294921875,0.0625,1.375,-6.4375,0.0048828125,-0.2119140625,0.83544921875
46,1598009863286007,-0.14288330078125,-0.02099609375,0.25848388671875,0.95513916015625,-6.4375,0.3125,-9.1875,0.04541015625,-0.2255859375,0.8828125
47,1598009863308007,-0.1448974609375,-0.02276611328125,0.25677490234375,0.95526123046875,-10.5,-2.1875,-9.9375,0.01318359375,-0.318359375,0.90576171875
48,1598009863329014,-0.14544677734375,-0.02459716796875,0.25457763671875,0.9556884765625,-4.4375,-5.5,-13.3125,0.00537109375,-0.306640625,0.9375
49,1598009863346010,-0.1453857421875,-0.02667236328125,0.25213623046875,0.956298828125,-4.0,-6.0625,-15.0625,0.02294921875,-0.2724609375,0.96923828125
50,1598009863368014,-0.14544677734375,-0.0283203125,0.2501220703125,0.956787109375,-5.25,-6.8125,-13.125,-0.01611328125,-0.26953125,0.9990234375
51,1598009863389008,-0.14654541015625,-0.02978515625,0.2490234375,0.95684814453125,-9.375,-9.75,-8.5,-0.0771484375,-0.29052734375,0.9853515625
52,1598009863406196,-0.14739990234375,-0.03167724609375,0.24859619140625,0.956787109375,-6.0625,-12.25,-4.875,-0.06689453125,-0.3349609375,1.0126953125
53,1598009863429006,-0.1470947265625,-0.033447265625,0.2481689453125,0.95684814453125,2.875,-10.5,-4.1875,-0.01904296875,-0.3759765625,1.0107421875
54,1598009863449198,-0.1444091796875,-0.03369140625,0.248046875,0.957275390625,15.9375,-5.875,-2.3125,-0.02099609375,-0.32763671875,1.0126953125
55,1598009863466197,-0.140625,-0.031982421875,0.24884033203125,0.95770263671875,20.875,-1.875,2.6875,-0.08935546875,-0.26611328125,1.03125
56,1598009863488132,-0.13873291015625,-0.031005859375,0.24945068359375,0.9578857421875,9.125,-5.0,1.5625,-0.11279296875,-0.24365234375,0.97900390625
57,1598009863509238,-0.139404296875,-0.03216552734375,0.24932861328125,0.957763671875,-5.6875,-5.0625,-1.25,-0.00830078125,-0.298828125,1.01953125
58,1598009863525244,-0.1400146484375,-0.03277587890625,0.24920654296875,0.95770263671875,-3.6875,0.5,-0.1875,0.03515625,-0.31640625,1.02783203125
59,1598009863548241,-0.13958740234375,-0.0316162109375,0.24969482421875,0.9576416015625,5.25,2.6875,2.6875,-0.04736328125,-0.3037109375,0.97265625
60,1598009863569238,-0.13818359375,-0.030517578125,0.2493896484375,0.95794677734375,7.375,2.125,-1.875,-0.041015625,-0.2333984375,0.89453125
61,1598009863586504,-0.13861083984375,-0.03094482421875,0.24859619140625,0.95806884765625,-2.75,2.75,-3.75,0.04638671875,-0.26953125,0.9072265625
62,1598009863608657,-0.140625,-0.03118896484375,0.24835205078125,0.9578857421875,-9.25,2.5,-0.875,0.0,-0.31884765625,0.95703125
63,1598009863629256,-0.1429443359375,-0.031982421875,0.24761962890625,0.95770263671875,-12.3125,-2.5,-4.375,-0.03857421875,-0.31982421875,0.96044921875
64,1598009863646242,-0.1446533203125,-0.03411865234375,0.2462158203125,0.95770263671875,-13.0,-7.1875,-9.1875,0.009765625,-0.2841796875,0.93798828125
65,1598009863668243,-0.14556884765625,-0.03631591796875,0.24554443359375,0.95770263671875,-6.375,-7.9375,-4.4375,0.03271484375,-0.330078125,0.970703125
66,1598009863689341,-0.14434814453125,-0.037353515625,0.2454833984375,0.95782470703125,5.0,-8.0,-1.9375,-0.0107421875,-0.287109375,0.95263671875
67,1598009863706218,-0.141845703125,-0.03759765625,0.24615478515625,0.9580078125,9.0,-5.9375,2.4375,-0.0048828125,-0.21826171875,0.9443359375
68,1598009863728807,-0.1412353515625,-0.03753662109375,0.2469482421875,0.9578857421875,1.1875,-2.625,4.0625,-0.021484375,-0.24267578125,0.90478515625
69,1598009863750901,-0.142822265625,-0.037353515625,0.24737548828125,0.95758056640625,-8.125,1.5,3.0,-0.0166015625,-0.2998046875,0.95947265625
70,1598009863766410,-0.1446533203125,-0.0369873046875,0.24761962890625,0.957275390625,-7.5,1.5625,1.625,-0.0400390625,-0.349609375,1.01806640625
71,1598009863788804,-0.14556884765625,-0.037353515625,0.24725341796875,0.95721435546875,-4.4375,-3.625,-3.1875,-0.05126953125,-0.345703125,1.0498046875
72,1598009863810386,-0.144775390625,-0.038330078125,0.246826171875,0.9573974609375,2.0,-7.5625,-3.875,-0.01904296875,-0.3056640625,1.029296875
73,1598009863825859,-0.142578125,-0.0389404296875,0.24676513671875,0.95770263671875,7.125,-8.4375,-2.625,-0.02490234375,-0.22802734375,0.96484375
74,1598009863848388,-0.1424560546875,-0.03955078125,0.246826171875,0.95770263671875,0.8125,-6.75,-0.9375,-0.04150390625,-0.31298828125,0.96630859375
75,1598009863870569,-0.1429443359375,-0.04071044921875,0.24639892578125,0.9576416015625,-1.375,-4.375,-3.1875,0.01708984375,-0.34326171875,0.95751953125
76,1598009863885389,-0.14361572265625,-0.0418701171875,0.2452392578125,0.95782470703125,-5.875,-0.4375,-5.9375,0.0712890625,-0.2900390625,0.95849609375
77,1598009863908639,-0.145263671875,-0.04217529296875,0.24462890625,0.95770263671875,-10.0625,2.4375,-2.9375,0.0302734375,-0.31494140625,1.02392578125
78,1598009863931218,-0.1463623046875,-0.04241943359375,0.24468994140625,0.95751953125,-5.3125,-1.75,0.1875,-0.017578125,-0.341796875,1.01171875
79,1598009863945867,-0.1451416015625,-0.04302978515625,0.2449951171875,0.95758056640625,3.3125,-4.875,0.9375,0.015625,-0.2646484375,0.97900390625
80,1598009863968587,-0.143798828125,-0.04364013671875,0.24542236328125,0.9576416015625,4.6875,-2.625,2.25,0.05859375,-0.26953125,0.95654296875
81,1598009863991388,-0.1424560546875,-0.0435791015625,0.24591064453125,0.957763671875,8.125,0.5625,3.0625,0.0498046875,-0.31396484375,0.98583984375
82,1598009864005388,-0.141357421875,-0.04315185546875,0.2467041015625,0.95770263671875,7.0,1.4375,4.75,0.03369140625,-0.294921875,0.9599609375
83,1598009864028569,-0.14141845703125,-0.04266357421875,0.2469482421875,0.9576416015625,-2.6875,1.75,1.9375,0.001953125,-0.251953125,0.96142578125
84,1598009864051229,-0.14349365234375,-0.04339599609375,0.2467041015625,0.9573974609375,-12.875,0.4375,-0.875,0.03076171875,-0.298828125,0.97314453125
85,1598009864065392,-0.14544677734375,-0.04425048828125,0.24652099609375,0.95709228515625,-10.0,-0.625,-0.375,0.033203125,-0.33447265625,0.9599609375
86,1598009864088384,-0.14532470703125,-0.044677734375,0.24664306640625,0.95709228515625,1.4375,-2.75,0.1875,0.00927734375,-0.330078125,0.9794921875
87,1598009864110386,-0.14404296875,-0.04498291015625,0.2467041015625,0.95721435546875,8.0,-4.875,-0.8125,-0.00537109375,-0.32421875,0.9814453125
88,1598009864125389,-0.14190673828125,-0.04559326171875,0.24664306640625,0.95751953125,8.875,-6.6875,-1.9375,0.01318359375,-0.27978515625,1.00927734375
89,1598009864148714,-0.1414794921875,-0.046630859375,0.2467041015625,0.95751953125,-0.125,-6.8125,-0.875,0.01171875,-0.2900390625,0.99609375
90,1598009864170387,-0.1417236328125,-0.04669189453125,0.2469482421875,0.95745849609375,-4.5,-4.125,0.375,-0.03759765625,-0.26318359375,1.001953125
91,1598009864185477,-0.1427001953125,-0.04644775390625,0.24755859375,0.9571533203125,-6.8125,-2.625,2.6875,-0.05029296875,-0.2958984375,1.0185546875
92,1598009864208732,-0.1436767578125,-0.04638671875,0.24774169921875,0.95697021484375,-3.375,-0.3125,1.0,-0.00634765625,-0.33984375,0.9970703125
93,1598009864231386,-0.14263916015625,-0.04583740234375,0.2481689453125,0.95703125,7.3125,3.5625,3.1875,0.0478515625,-0.31298828125,0.97802734375
94,1598009864251668,-0.1414794921875,-0.04437255859375,0.24884033203125,0.95709228515625,9.4375,6.0,4.3125,0.02001953125,-0.3125,0.9697265625
95,1598009864268196,-0.140869140625,-0.04339599609375,0.24920654296875,0.9571533203125,5.6875,4.6875,2.75,0.01953125,-0.30419921875,0.9560546875
96,1598009864291204,-0.1412353515625,-0.043212890625,0.249267578125,0.95709228515625,-0.4375,3.6875,1.125,0.04296875,-0.30615234375,0.9501953125
97,1598009864311994,-0.14190673828125,-0.0433349609375,0.24908447265625,0.95703125,-4.125,3.4375,0.375,0.05810546875,-0.2958984375,0.95947265625
98,1598009864328023,-0.14300537109375,-0.04339599609375,0.249267578125,0.956787109375,-5.0,2.6875,1.875,0.037109375,-0.31005859375,0.9404296875
99,1598009864351314,-0.1434326171875,-0.0430908203125,0.24969482421875,0.9566650390625,-1.375,0.9375,2.4375,-0.00830078125,-0.3046875,0.9501953125
100,1598009864372171,-0.14361572265625,-0.04327392578125,0.25018310546875,0.95648193359375,-0.5625,-2.25,2.4375,-0.00439453125,-0.29248046875,0.92138671875
