index,timestamp,orientation_x,orientation_y,orientation_z,orientation_w,gyroscope_x,gyroscope_y,gyroscope_z,acceleration_x,acceleration_y,acceleration_z
0,1597982728905874,-0.14935302734375,0.09381103515625,-0.50390625,0.8455810546875,-1.625,-1.5625,5.1875,-0.00439453125,-0.375,0.96630859375
1,1597982728936879,-0.149169921875,0.09356689453125,-0.50311279296875,0.8460693359375,3.0625,-1.375,5.125,-0.00634765625,-0.37451171875,0.96240234375
2,1597982728942874,-0.14813232421875,0.093017578125,-0.5025634765625,0.84661865234375,6.3125,-0.375,4.4375,-0.00830078125,-0.34912109375,0.9580078125
3,1597982728965879,-0.14752197265625,0.09283447265625,-0.50213623046875,0.8470458984375,2.75,-0.125,3.0625,-0.01806640625,-0.3388671875,0.9580078125
4,1597982728987881,-0.1478271484375,0.09320068359375,-0.5018310546875,0.84710693359375,-2.625,-0.1875,1.875,-0.01708984375,-0.35205078125,0.9580078125
5,1597982729002872,-0.14849853515625,0.0936279296875,-0.5015869140625,0.84710693359375,-4.25,-0.125,1.125,-0.01171875,-0.361328125,0.95947265625
6,1597982729025973,-0.14910888671875,0.093994140625,-0.50140380859375,0.8470458984375,-3.0625,0.0625,0.75,-0.01171875,-0.369140625,0.95751953125
7,1597982729056972,-0.1492919921875,0.09417724609375,-0.50128173828125,0.84710693359375,-1.3125,0.3125,0.6875,-0.0087890625,-0.3603515625,0.96240234375
8,1597982729062972,-0.1492919921875,0.09417724609375,-0.50128173828125,0.84710693359375,-0.8125,0.6875,0.5,-0.0087890625,-0.3603515625,0.95751953125
9,1597982729085972,-0.14935302734375,0.0943603515625,-0.50115966796875,0.84710693359375,-1.125,0.6875,0.5625,-0.0068359375,-0.35302734375,0.9599609375
10,1597982729108051,-0.1494140625,0.0946044921875,-0.50115966796875,0.84710693359375,-1.375,0.875,0.3125,-0.0126953125,-0.353515625,0.96240234375
11,1597982729123059,-0.14947509765625,0.09490966796875,-0.50103759765625,0.84710693359375,-1.625,1.0,0.5625,-0.01220703125,-0.34912109375,0.958984375
12,1597982729146059,-0.14959716796875,0.09521484375,-0.5009765625,0.84710693359375,-1.625,0.875,0.5,-0.01611328125,-0.35302734375,0.95751953125
13,1597982729168060,-0.14971923828125,0.09539794921875,-0.50079345703125,0.84716796875,-1.3125,0.4375,0.9375,-0.01220703125,-0.35791015625,0.958984375
14,1597982729183059,-0.14984130859375,0.0955810546875,-0.5006103515625,0.84722900390625,-1.0,0.125,1.125,-0.01513671875,-0.3603515625,0.9580078125
15,1597982729213150,-0.14984130859375,0.09564208984375,-0.50042724609375,0.84735107421875,-0.3125,0.0,1.25,-0.015625,-0.36083984375,0.96435546875
16,1597982729228149,-0.14984130859375,0.095703125,-0.50018310546875,0.847412109375,-0.4375,-0.4375,1.25,-0.01708984375,-0.35546875,0.9599609375
17,1597982729243147,-0.14996337890625,0.09552001953125,-0.5,0.84759521484375,0.125,-1.375,1.125,-0.01220703125,-0.361328125,0.96728515625
18,1597982729266230,-0.14971923828125,0.09521484375,-0.49993896484375,0.84765625,2.125,-0.625,0.375,-0.009765625,-0.36181640625,0.96044921875
19,1597982729288325,-0.1492919921875,0.09490966796875,-0.5,0.8477783203125,2.625,-0.375,0.0,-0.01171875,-0.35009765625,0.9560546875
20,1597982729304320,-0.149169921875,0.0948486328125,-0.500244140625,0.84765625,0.4375,-0.3125,-1.6875,-0.01806640625,-0.349609375,0.955078125
21,1597982729333315,-0.14971923828125,0.09454345703125,-0.5001220703125,0.84765625,-1.8125,-4.25,-0.1875,-0.0302734375,-0.35888671875,0.96044921875
22,1597982729348314,-0.15032958984375,0.0936279296875,-0.49969482421875,0.847900390625,0.0,-8.0625,0.875,-0.02734375,-0.36669921875,0.97216796875
23,1597982729372317,-0.15087890625,0.09222412109375,-0.49932861328125,0.84814453125,2.9375,-9.0625,1.0,-0.0107421875,-0.3837890625,0.95751953125
24,1597982729385316,-0.15081787109375,0.090576171875,-0.4991455078125,0.84844970703125,6.3125,-6.9375,0.9375,0.0166015625,-0.36962890625,0.966796875
25,1597982729408322,-0.1494140625,0.0887451171875,-0.499267578125,0.84881591796875,10.125,-3.5,0.125,0.0224609375,-0.3251953125,0.97509765625
26,1597982729424314,-0.14825439453125,0.08758544921875,-0.49969482421875,0.84893798828125,6.5625,-1.5,-2.0625,0.005859375,-0.30224609375,0.95263671875
27,1597982729445322,-0.1488037109375,0.08770751953125,-0.4998779296875,0.84869384765625,-5.375,-1.5,-2.375,-0.0146484375,-0.30908203125,0.94873046875
28,1597982729468322,-0.1513671875,0.08905029296875,-0.50018310546875,0.847900390625,-15.875,-1.0,-4.0,-0.0107421875,-0.3671875,0.9453125
29,1597982729484322,-0.15399169921875,0.09051513671875,-0.50030517578125,0.84722900390625,-14.25,-0.625,-2.9375,-0.0087890625,-0.40478515625,0.9580078125
30,1597982729505413,-0.15496826171875,0.09112548828125,-0.50030517578125,0.84698486328125,-2.5,-0.25,-0.8125,-0.00537109375,-0.42529296875,0.94482421875
31,1597982729531413,-0.1541748046875,0.09014892578125,-0.50042724609375,0.84716796875,10.375,-1.5625,-0.375,0.01220703125,-0.41064453125,0.95556640625
32,1597982729544490,-0.1507568359375,0.088623046875,-0.50079345703125,0.84771728515625,19.8125,2.625,0.4375,0.0068359375,-0.330078125,0.9677734375
33,1597982729565495,-0.1484375,0.08807373046875,-0.50140380859375,0.84783935546875,8.9375,3.9375,-2.0625,-0.0087890625,-0.279296875,0.95166015625
34,1597982729596499,-0.14959716796875,0.089111328125,-0.5018310546875,0.84722900390625,-10.3125,1.5,-3.8125,-0.01416015625,-0.32470703125,0.947265625
35,1597982729604492,-0.15179443359375,0.0902099609375,-0.50213623046875,0.8465576171875,-13.0,0.375,-3.6875,0.00732421875,-0.38232421875,0.9697265625
36,1597982729625489,-0.1524658203125,0.09063720703125,-0.50250244140625,0.84619140625,-3.0625,0.875,-2.4375,0.00390625,-0.38232421875,0.96630859375
37,1597982729648500,-0.15203857421875,0.0904541015625,-0.5028076171875,0.8460693359375,2.9375,1.5,-1.625,0.0126953125,-0.36279296875,0.9541015625
38,1597982729666502,-0.1513671875,0.09027099609375,-0.50323486328125,0.84600830078125,3.0,1.875,-1.8125,0.005859375,-0.34375,0.96435546875
39,1597982729685499,-0.151123046875,0.09027099609375,-0.50341796875,0.845947265625,0.8125,0.625,-1.0625,-0.00390625,-0.349609375,0.958984375
40,1597982729708508,-0.15093994140625,0.09027099609375,-0.50360107421875,0.8458251953125,0.9375,0.625,-1.1875,-0.00244140625,-0.353515625,0.966796875
41,1597982729726503,-0.1505126953125,0.09027099609375,-0.5037841796875,0.84576416015625,1.5,0.6875,-1.25,-0.01025390625,-0.34619140625,0.96044921875
42,1597982729745499,-0.15045166015625,0.0902099609375,-0.5037841796875,0.8458251953125,-0.125,-0.125,-0.9375,-0.00732421875,-0.3369140625,0.95654296875
43,1597982729768499,-0.1510009765625,0.09051513671875,-0.5040283203125,0.8455810546875,-3.1875,-0.375,-1.875,-0.0078125,-0.3583984375,0.9560546875
44,1597982729786502,-0.1514892578125,0.090576171875,-0.5040283203125,0.845458984375,-1.6875,-0.625,-0.375,0.005859375,-0.37060546875,0.958984375
45,1597982729805499,-0.1512451171875,0.09039306640625,-0.504150390625,0.845458984375,2.125,0.0,-0.6875,0.0,-0.36376953125,0.95654296875
46,1597982729828499,-0.15081787109375,0.090087890625,-0.50421142578125,0.84552001953125,2.6875,0.0625,-0.25,0.00146484375,-0.3447265625,0.95849609375
47,1597982729846502,-0.150634765625,0.090087890625,-0.50439453125,0.845458984375,0.0625,0.1875,-1.0625,-0.00830078125,-0.34130859375,0.958984375
48,1597982729865499,-0.15118408203125,0.09051513671875,-0.50445556640625,0.84527587890625,-4.3125,-0.4375,-1.25,-0.0166015625,-0.35205078125,0.958984375
49,1597982729888499,-0.15234375,0.09124755859375,-0.50445556640625,0.844970703125,-6.5625,-0.9375,-1.25,-0.0146484375,-0.3779296875,0.94921875
50,1597982729906501,-0.15301513671875,0.0909423828125,-0.5045166015625,0.8448486328125,-2.0,-1.6875,-0.625,0.02490234375,-0.36865234375,0.9658203125
51,1597982729925492,-0.15277099609375,0.09088134765625,-0.5045166015625,0.8448486328125,2.0625,0.5,0.0625,-0.0029296875,-0.3681640625,0.95361328125
52,1597982729948495,-0.1522216796875,0.090576171875,-0.50457763671875,0.844970703125,2.5,0.625,0.3125,0.00830078125,-0.3408203125,0.96923828125
53,1597982729966599,-0.15216064453125,0.090576171875,-0.50457763671875,0.844970703125,-0.5625,0.625,-0.625,-0.00390625,-0.341796875,0.958984375
54,1597982729985575,-0.15252685546875,0.09088134765625,-0.50457763671875,0.84490966796875,-2.8125,0.375,-0.3125,-0.0009765625,-0.3583984375,0.96044921875
55,1597982730008570,-0.15252685546875,0.09088134765625,-0.50457763671875,0.84490966796875,-0.6875,0.75,0.0,0.0,-0.36474609375,0.9599609375
56,1597982730026570,-0.15252685546875,0.09088134765625,-0.50457763671875,0.84490966796875,0.0,0.6875,0.125,-0.00341796875,-0.353515625,0.95263671875
57,1597982730045575,-0.15252685546875,0.09088134765625,-0.50457763671875,0.84490966796875,-0.9375,-0.25,0.6875,-0.00048828125,-0.3583984375,0.96142578125
58,1597982730068575,-0.15252685546875,0.09088134765625,-0.50457763671875,0.84490966796875,-0.125,-0.4375,0.8125,-0.00439453125,-0.36279296875,0.962890625
59,1597982730086597,-0.15252685546875,0.09088134765625,-0.50457763671875,0.84490966796875,0.625,-0.625,0.9375,0.0009765625,-0.3564453125,0.95947265625
60,1597982730107603,-0.15252685546875,0.09088134765625,-0.50457763671875,0.84490966796875,0.75,0.25,-0.1875,-0.00146484375,-0.34814453125,0.95849609375
61,1597982730128575,-0.15277099609375,0.091064453125,-0.50445556640625,0.84490966796875,-1.8125,-0.5,0.3125,-0.0078125,-0.361328125,0.955078125
62,1597982730146576,-0.153076171875,0.09124755859375,-0.50439453125,0.8448486328125,-1.4375,-0.3125,0.0625,-0.00244140625,-0.36572265625,0.958984375
63,1597982730165575,-0.153076171875,0.09124755859375,-0.50439453125,0.8448486328125,0.0,-0.375,0.125,0.00244140625,-0.36474609375,0.95703125
64,1597982730188576,-0.153076171875,0.09124755859375,-0.50439453125,0.8448486328125,0.6875,0.5,-0.5625,0.00390625,-0.3564453125,0.95849609375
65,1597982730206577,-0.153076171875,0.09124755859375,-0.50439453125,0.8448486328125,-0.25,0.5,0.0625,-0.0029296875,-0.35302734375,0.9580078125
66,1597982730227662,-0.153076171875,0.09124755859375,-0.50439453125,0.8448486328125,-0.5625,-0.125,0.0,-0.00244140625,-0.36669921875,0.96337890625
67,1597982730248622,-0.15289306640625,0.091064453125,-0.50445556640625,0.84490966796875,1.1875,0.3125,0.0,0.00830078125,-0.35888671875,0.96337890625
68,1597982730266619,-0.15289306640625,0.091064453125,-0.50445556640625,0.84490966796875,0.875,0.5,0.0,-0.00830078125,-0.35595703125,0.9560546875
69,1597982730287619,-0.15289306640625,0.091064453125,-0.50445556640625,0.84490966796875,0.1875,-0.3125,-0.125,0.0029296875,-0.35302734375,0.96142578125
70,1597982730308613,-0.15283203125,0.091064453125,-0.50445556640625,0.84490966796875,-0.375,0.4375,-0.6875,-0.00439453125,-0.35205078125,0.95654296875
71,1597982730326619,-0.15301513671875,0.09124755859375,-0.50433349609375,0.84490966796875,-1.375,-0.3125,0.25,-0.009765625,-0.36181640625,0.962890625
72,1597982730347619,-0.15301513671875,0.09124755859375,-0.50433349609375,0.84490966796875,0.25,-0.5,0.125,-0.00048828125,-0.36279296875,0.955078125
73,1597982730368618,-0.1527099609375,0.09112548828125,-0.50439453125,0.844970703125,2.0,0.3125,0.0625,0.001953125,-0.35888671875,0.9580078125
74,1597982730386621,-0.1527099609375,0.09112548828125,-0.50439453125,0.844970703125,0.9375,-0.4375,0.3125,-0.00341796875,-0.3544921875,0.9619140625
75,1597982730407612,-0.1527099609375,0.09112548828125,-0.50439453125,0.844970703125,0.0,-0.4375,-0.25,0.0009765625,-0.3544921875,0.95751953125
76,1597982730428620,-0.1527099609375,0.09112548828125,-0.50439453125,0.844970703125,0.0625,-0.9375,0.0,0.00244140625,-0.3525390625,0.9599609375
77,1597982730446619,-0.1527099609375,0.09112548828125,-0.50439453125,0.844970703125,-0.3125,-0.8125,0.25,-0.00390625,-0.35986328125,0.96044921875
78,1597982730467695,-0.15264892578125,0.09112548828125,-0.50439453125,0.844970703125,-0.5,-0.1875,-0.5,-0.00537109375,-0.35107421875,0.9541015625
79,1597982730487808,-0.15289306640625,0.09112548828125,-0.50433349609375,0.844970703125,-1.5,-0.875,0.125,-0.00244140625,-0.357421875,0.95849609375
80,1597982730505800,-0.1529541015625,0.09112548828125,-0.50433349609375,0.844970703125,-0.375,-0.875,0.1875,0.0048828125,-0.36328125,0.96240234375
81,1597982730526798,-0.1527099609375,0.0909423828125,-0.50433349609375,0.844970703125,1.125,0.1875,0.0,0.00634765625,-0.353515625,0.9609375
82,1597982730548801,-0.1527099609375,0.0909423828125,-0.50433349609375,0.844970703125,0.0,0.125,0.25,-0.00390625,-0.3505859375,0.95703125
83,1597982730565800,-0.15283203125,0.091064453125,-0.50433349609375,0.844970703125,-1.25,0.0,0.0625,-0.00390625,-0.35546875,0.96044921875
84,1597982730588793,-0.153076171875,0.0911865234375,-0.50421142578125,0.844970703125,-1.25,-0.5625,0.125,-0.00341796875,-0.36328125,0.95751953125
85,1597982730607792,-0.153076171875,0.0911865234375,-0.50421142578125,0.844970703125,-0.5,-0.5,0.0,-0.00146484375,-0.3603515625,0.96240234375
86,1597982730625789,-0.153076171875,0.0911865234375,-0.50421142578125,0.844970703125,0.125,-0.5625,0.8125,0.00341796875,-0.359375,0.96142578125
87,1597982730648793,-0.1529541015625,0.09100341796875,-0.50421142578125,0.84503173828125,1.125,0.0,0.3125,0.00537109375,-0.3603515625,0.95703125
88,1597982730667889,-0.15289306640625,0.091064453125,-0.50421142578125,0.84503173828125,0.0,0.0,0.625,-0.00439453125,-0.35302734375,0.9541015625
89,1597982730685880,-0.15289306640625,0.091064453125,-0.50421142578125,0.84503173828125,-0.625,-0.0625,0.125,-0.00146484375,-0.35791015625,0.9541015625
90,1597982730708877,-0.1529541015625,0.091064453125,-0.50421142578125,0.84503173828125,-0.6875,-0.375,0.125,-0.0009765625,-0.36279296875,0.96142578125
91,1597982730727968,-0.1529541015625,0.091064453125,-0.50421142578125,0.84503173828125,0.0625,0.0,0.125,0.001953125,-0.3623046875,0.95556640625
92,1597982730745961,-0.1529541015625,0.091064453125,-0.50421142578125,0.84503173828125,0.6875,0.5,0.0,0.00048828125,-0.3505859375,0.95703125
93,1597982730768968,-0.15289306640625,0.091064453125,-0.50421142578125,0.84503173828125,-0.1875,0.3125,0.125,-0.00634765625,-0.34912109375,0.953125
94,1597982730787967,-0.15289306640625,0.091064453125,-0.50421142578125,0.84503173828125,-0.9375,0.125,-0.0625,0.0029296875,-0.36083984375,0.958984375
95,1597982730805968,-0.15289306640625,0.091064453125,-0.50421142578125,0.84503173828125,0.0,0.1875,0.125,-0.0009765625,-0.36376953125,0.9599609375
96,1597982730828975,-0.15289306640625,0.091064453125,-0.50421142578125,0.84503173828125,0.75,-0.0625,0.3125,0.00048828125,-0.3583984375,0.96484375
97,1597982730847968,-0.15289306640625,0.09100341796875,-0.50421142578125,0.84503173828125,0.3125,0.375,-0.3125,-0.00048828125,-0.3525390625,0.9619140625
98,1597982730865969,-0.15301513671875,0.0911865234375,-0.504150390625,0.84503173828125,-1.3125,-0.25,0.0625,-0.0078125,-0.35693359375,0.95849609375
99,1597982730888968,-0.15301513671875,0.0911865234375,-0.504150390625,0.84503173828125,-0.6875,-0.5625,-0.1875,0.00244140625,-0.36376953125,0.95703125
100,1597982730907961,-0.153076171875,0.09112548828125,-0.504150390625,0.84503173828125,0.6875,0.25,-0.1875,0.0087890625,-0.357421875,0.95947265625
