index,timestamp,orientation_x,orientation_y,orientation_z,orientation_w,gyroscope_x,gyroscope_y,gyroscope_z,acceleration_x,acceleration_y,acceleration_z
0,1596961764511442,-0.47979736328125,-0.12811279296875,-0.48675537109375,-0.71875,2.75,-1.25,-0.4375,0.27587890625,0.78271484375,0.4873046875
1,1596961764525442,-0.47991943359375,-0.128173828125,-0.48663330078125,-0.71868896484375,1.1875,-0.375,-0.5,0.27392578125,0.7890625,0.4921875
2,1596961764543442,-0.47998046875,-0.12835693359375,-0.486572265625,-0.71868896484375,1.0625,0.0,-0.5625,0.26904296875,0.7802734375,0.49560546875
3,1596961764563446,-0.47998046875,-0.12841796875,-0.486572265625,-0.71868896484375,1.5,-0.25,0.0625,0.26416015625,0.77490234375,0.5029296875
4,1596961764586443,-0.4803466796875,-0.12847900390625,-0.48638916015625,-0.71856689453125,2.625,-1.5,-0.0625,0.263671875,0.77880859375,0.490234375
5,1596961764603442,-0.48065185546875,-0.128662109375,-0.4862060546875,-0.71844482421875,2.375,-1.125,-0.0625,0.26513671875,0.7978515625,0.49462890625
6,1596961764624440,-0.48065185546875,-0.128662109375,-0.4862060546875,-0.71844482421875,0.5,0.3125,0.0,0.2724609375,0.78955078125,0.49462890625
7,1596961764645441,-0.4805908203125,-0.1287841796875,-0.48626708984375,-0.7183837890625,1.625,0.625,-0.5,0.2744140625,0.7666015625,0.50341796875
8,1596961764663445,-0.48095703125,-0.129150390625,-0.4862060546875,-0.7181396484375,4.25,0.625,-0.9375,0.28076171875,0.77685546875,0.49365234375
9,1596961764684443,-0.4810791015625,-0.1295166015625,-0.48614501953125,-0.718017578125,2.375,0.875,-1.375,0.27734375,0.78564453125,0.494140625
10,1596961764705444,-0.48095703125,-0.12969970703125,-0.4862060546875,-0.71807861328125,0.25,1.3125,-0.5,0.26513671875,0.775390625,0.4873046875
11,1596961764723446,-0.4808349609375,-0.1300048828125,-0.48626708984375,-0.718017578125,0.9375,1.25,0.0625,0.26416015625,0.783203125,0.49169921875
12,1596961764744442,-0.48046875,-0.13043212890625,-0.48663330078125,-0.71795654296875,-0.3125,3.75,0.0625,0.26708984375,0.79052734375,0.4912109375
13,1596961764765445,-0.47955322265625,-0.1304931640625,-0.48724365234375,-0.71807861328125,-3.6875,4.3125,1.0625,0.28125,0.7900390625,0.50244140625
14,1596961764789442,-0.47906494140625,-0.13079833984375,-0.48736572265625,-0.71832275390625,-1.125,2.25,-0.875,0.25830078125,0.78955078125,0.5048828125
15,1596961764804442,-0.478759765625,-0.1312255859375,-0.48748779296875,-0.7183837890625,0.4375,2.5625,-1.1875,0.2607421875,0.76171875,0.4853515625
16,1596961764826441,-0.47918701171875,-0.1318359375,-0.48724365234375,-0.7181396484375,3.0,1.3125,-1.9375,0.27880859375,0.8173828125,0.4833984375
17,1596961764843443,-0.4781494140625,-0.13214111328125,-0.4869384765625,-0.718994140625,-6.25,2.25,-3.9375,0.255859375,0.81591796875,0.5
18,1596961764864445,-0.478271484375,-0.13250732421875,-0.486328125,-0.71917724609375,-2.75,0.1875,-3.1875,0.26611328125,0.83642578125,0.443359375
19,1596961764885442,-0.4757080078125,-0.132568359375,-0.48663330078125,-0.720703125,-15.375,7.0625,-5.3125,0.2822265625,0.845703125,0.525390625
20,1596961764903442,-0.47357177734375,-0.13287353515625,-0.4852294921875,-0.7230224609375,-11.4375,0.625,-13.8125,0.22900390625,0.74462890625,0.501953125
21,1596961764924442,-0.471923828125,-0.133056640625,-0.48492431640625,-0.7242431640625,-3.375,2.9375,-8.8125,0.2763671875,0.71435546875,0.56689453125
22,1596961764945442,-0.47088623046875,-0.1351318359375,-0.48553466796875,-0.72412109375,7.5625,12.625,-5.875,0.271484375,0.72705078125,0.572265625
23,1596961764963448,-0.470703125,-0.1365966796875,-0.48541259765625,-0.7239990234375,6.5625,6.125,-5.1875,0.2412109375,0.703125,0.4970703125
24,1596961764986443,-0.4737548828125,-0.1396484375,-0.48382568359375,-0.72259521484375,24.875,0.4375,-7.1875,0.2236328125,0.78857421875,0.4736328125
25,1596961765005445,-0.47503662109375,-0.1412353515625,-0.483154296875,-0.72186279296875,9.625,4.6875,-7.5625,0.328125,0.87353515625,0.49365234375
26,1596961765028448,-0.47119140625,-0.142333984375,-0.48480224609375,-0.7230224609375,-13.125,18.375,-3.6875,0.25048828125,0.74169921875,0.53955078125
27,1596961765046445,-0.4703369140625,-0.14483642578125,-0.4853515625,-0.72271728515625,13.375,10.5,-2.9375,0.16845703125,0.6435546875,0.5751953125
28,1596961765065442,-0.47564697265625,-0.14788818359375,-0.482421875,-0.7205810546875,32.875,-9.3125,-5.75,0.16748046875,0.826171875,0.40283203125
29,1596961765088444,-0.479736328125,-0.1490478515625,-0.47998046875,-0.71923828125,15.0,-10.375,-3.875,0.24658203125,0.95166015625,0.38330078125
30,1596961765106442,-0.47674560546875,-0.1480712890625,-0.4803466796875,-0.72119140625,-25.25,5.1875,-4.5,0.28369140625,0.92578125,0.48193359375
31,1596961765125442,-0.47222900390625,-0.1478271484375,-0.4810791015625,-0.7237548828125,-18.8125,9.0625,-7.125,0.2099609375,0.71484375,0.5810546875
32,1596961765148443,-0.47381591796875,-0.1502685546875,-0.478271484375,-0.72406005859375,15.9375,-3.3125,-16.6875,0.19189453125,0.7705078125,0.48876953125
33,1596961765166444,-0.47613525390625,-0.15203857421875,-0.474365234375,-0.7247314453125,14.9375,-12.125,-17.375,0.15283203125,0.7705078125,0.443359375
34,1596961765185444,-0.47540283203125,-0.150146484375,-0.4730224609375,-0.7265625,-12.0625,-9.0625,-9.3125,0.296875,0.85498046875,0.51708984375
35,1596961765208442,-0.47369384765625,-0.14752197265625,-0.4715576171875,-0.7291259765625,-17.875,-13.0625,-7.5625,0.224609375,0.8017578125,0.52685546875
36,1596961765226441,-0.47271728515625,-0.14727783203125,-0.468994140625,-0.7314453125,-3.3125,-7.1875,-19.625,0.24462890625,0.7353515625,0.54736328125
37,1596961765246442,-0.4736328125,-0.14990234375,-0.46746826171875,-0.7313232421875,25.0,4.375,-18.0625,0.26318359375,0.62451171875,0.595703125
38,1596961765268442,-0.4779052734375,-0.15655517578125,-0.462890625,-0.73004150390625,46.125,3.5625,-28.6875,0.16748046875,0.75390625,0.48876953125
39,1596961765286442,-0.485107421875,-0.16412353515625,-0.457763671875,-0.726806640625,55.6875,2.125,-25.125,0.193359375,0.95068359375,0.39697265625
40,1596961765305447,-0.48876953125,-0.1688232421875,-0.45538330078125,-0.72479248046875,25.6875,6.125,-12.0,0.1884765625,0.97314453125,0.36767578125
41,1596961765328445,-0.4879150390625,-0.17041015625,-0.455322265625,-0.72503662109375,-2.5,8.875,-5.6875,0.18310546875,0.8173828125,0.3994140625
42,1596961765346443,-0.48681640625,-0.17138671875,-0.45556640625,-0.72540283203125,1.3125,6.25,-3.875,0.16259765625,0.73583984375,0.478515625
43,1596961765365442,-0.48785400390625,-0.17254638671875,-0.4554443359375,-0.7244873046875,11.25,1.9375,0.375,0.1630859375,0.7900390625,0.4443359375
44,1596961765388443,-0.4893798828125,-0.173095703125,-0.455078125,-0.72357177734375,9.8125,-1.875,1.25,0.18212890625,0.83544921875,0.42724609375
45,1596961765409460,-0.48919677734375,-0.1727294921875,-0.4554443359375,-0.72357177734375,-2.9375,-0.375,3.0,0.18896484375,0.89892578125,0.46875
46,1596961765425444,-0.48773193359375,-0.17266845703125,-0.455810546875,-0.72430419921875,-7.375,2.25,0.25,0.15478515625,0.82470703125,0.46484375
47,1596961765448443,-0.48785400390625,-0.173828125,-0.45526123046875,-0.72430419921875,2.75,1.9375,-2.6875,0.146484375,0.8642578125,0.4443359375
48,1596961765466444,-0.488037109375,-0.1741943359375,-0.45477294921875,-0.72442626953125,2.125,-0.9375,-2.0625,0.1669921875,0.833984375,0.4462890625
49,1596961765485446,-0.48834228515625,-0.1744384765625,-0.454345703125,-0.72442626953125,1.6875,-0.6875,-2.625,0.19677734375,0.85205078125,0.44921875
50,1596961765508445,-0.48773193359375,-0.17388916015625,-0.45440673828125,-0.7249755859375,-5.5,-0.4375,-1.5,0.20751953125,0.85400390625,0.45703125
51,1596961765527444,-0.4869384765625,-0.1739501953125,-0.4542236328125,-0.7255859375,-3.625,1.3125,-3.5625,0.17919921875,0.8056640625,0.4501953125
52,1596961765547443,-0.487060546875,-0.1749267578125,-0.45318603515625,-0.72589111328125,2.625,-1.125,-5.125,0.138671875,0.83251953125,0.43603515625
53,1596961765568443,-0.487060546875,-0.175048828125,-0.4530029296875,-0.7259521484375,1.1875,-0.5625,-0.9375,0.16357421875,0.80615234375,0.44921875
54,1596961765586443,-0.486083984375,-0.17340087890625,-0.4537353515625,-0.7265625,-10.25,-1.0625,2.125,0.24658203125,0.8798828125,0.484375
55,1596961765607444,-0.4852294921875,-0.17315673828125,-0.45343017578125,-0.72735595703125,-4.6875,-1.3125,-2.9375,0.1640625,0.81494140625,0.46875
56,1596961765628442,-0.485107421875,-0.17388916015625,-0.45281982421875,-0.7276611328125,2.1875,0.75,-4.6875,0.1640625,0.8369140625,0.47265625
57,1596961765646444,-0.48468017578125,-0.1746826171875,-0.45263671875,-0.72784423828125,2.6875,3.8125,-5.1875,0.2001953125,0.814453125,0.48583984375
58,1596961765667443,-0.48388671875,-0.17584228515625,-0.4525146484375,-0.7281494140625,-2.0,6.3125,-5.125,0.169921875,0.84326171875,0.44384765625
59,1596961765688443,-0.48345947265625,-0.17633056640625,-0.4525146484375,-0.7283935546875,-1.875,2.25,-1.125,0.1533203125,0.82177734375,0.4365234375
60,1596961765706442,-0.4835205078125,-0.1766357421875,-0.452392578125,-0.72833251953125,0.9375,1.1875,-2.0,0.1806640625,0.83056640625,0.44580078125
61,1596961765727444,-0.48333740234375,-0.1771240234375,-0.45245361328125,-0.728271484375,2.125,2.5625,-0.9375,0.16943359375,0.81201171875,0.4658203125
62,1596961765748445,-0.48333740234375,-0.17718505859375,-0.45245361328125,-0.728271484375,-0.0625,0.375,0.4375,0.1396484375,0.83251953125,0.447265625
63,1596961765766445,-0.48297119140625,-0.176513671875,-0.45281982421875,-0.72845458984375,-3.5625,-1.25,2.6875,0.1708984375,0.81884765625,0.45751953125
64,1596961765787442,-0.48345947265625,-0.17645263671875,-0.45269775390625,-0.72821044921875,2.375,-1.875,1.0,0.169921875,0.8505859375,0.45751953125
65,1596961765808442,-0.4830322265625,-0.17633056640625,-0.45281982421875,-0.72845458984375,-2.25,0.3125,0.1875,0.16259765625,0.81591796875,0.45849609375
66,1596961765826443,-0.48321533203125,-0.17626953125,-0.45245361328125,-0.72857666015625,1.5625,-2.625,-0.25,0.15673828125,0.81689453125,0.45947265625
67,1596961765847444,-0.48382568359375,-0.176025390625,-0.4521484375,-0.72845458984375,2.4375,-3.125,-0.3125,0.1865234375,0.84765625,0.458984375
68,1596961765868441,-0.48345947265625,-0.17578125,-0.4521484375,-0.72869873046875,-2.6875,-0.0625,-0.9375,0.18359375,0.8466796875,0.46484375
69,1596961765886443,-0.48297119140625,-0.17608642578125,-0.4521484375,-0.72900390625,-1.125,2.25,-2.5,0.17333984375,0.814453125,0.46044921875
70,1596961765908446,-0.48333740234375,-0.17669677734375,-0.4512939453125,-0.7291259765625,2.875,-1.9375,-3.0625,0.1357421875,0.82666015625,0.439453125
71,1596961765928442,-0.48419189453125,-0.1763916015625,-0.450927734375,-0.7288818359375,4.1875,-4.0,0.125,0.18212890625,0.83056640625,0.45751953125
72,1596961765946443,-0.484375,-0.17626953125,-0.45062255859375,-0.72894287109375,1.3125,-1.8125,-1.5625,0.1865234375,0.84619140625,0.4697265625
73,1596961765968443,-0.484130859375,-0.17626953125,-0.4505615234375,-0.7291259765625,-0.375,0.375,-1.8125,0.1865234375,0.84912109375,0.4775390625
74,1596961765988443,-0.48406982421875,-0.177001953125,-0.449951171875,-0.7293701171875,1.125,0.4375,-3.625,0.14453125,0.8232421875,0.43994140625
75,1596961766006442,-0.48455810546875,-0.17767333984375,-0.449462890625,-0.72918701171875,6.0,-0.1875,-2.5,0.16064453125,0.82958984375,0.4736328125
76,1596961766028443,-0.48468017578125,-0.17840576171875,-0.44927978515625,-0.72906494140625,4.4375,2.25,-2.9375,0.17626953125,0.82763671875,0.46826171875
77,1596961766048445,-0.48486328125,-0.1795654296875,-0.44891357421875,-0.7288818359375,4.125,3.5625,-3.5625,0.1591796875,0.82861328125,0.43408203125
78,1596961766066444,-0.4852294921875,-0.18011474609375,-0.448486328125,-0.728759765625,2.5,0.1875,-2.25,0.1572265625,0.849609375,0.43505859375
79,1596961766088444,-0.4852294921875,-0.18011474609375,-0.448486328125,-0.728759765625,-0.25,0.375,-0.3125,0.17724609375,0.837890625,0.44189453125
80,1596961766108443,-0.4849853515625,-0.18035888671875,-0.44879150390625,-0.72869873046875,0.8125,2.75,-0.3125,0.1748046875,0.82080078125,0.46337890625
81,1596961766126442,-0.48480224609375,-0.18084716796875,-0.44879150390625,-0.72869873046875,-0.125,1.5625,-0.1875,0.13916015625,0.82861328125,0.4326171875
82,1596961766148446,-0.485107421875,-0.18115234375,-0.4483642578125,-0.7286376953125,1.6875,-1.3125,0.0,0.13134765625,0.8359375,0.42919921875
83,1596961766175441,-0.485595703125,-0.18096923828125,-0.4481201171875,-0.728515625,1.5625,-2.1875,-0.3125,0.17333984375,0.841796875,0.4404296875
84,1596961766186443,-0.485595703125,-0.180908203125,-0.4482421875,-0.72845458984375,2.125,-0.625,1.3125,0.1572265625,0.84326171875,0.48681640625
85,1596961766208443,-0.4849853515625,-0.180908203125,-0.44873046875,-0.728515625,-1.375,3.375,-0.625,0.1923828125,0.81640625,0.4658203125
86,1596961766228448,-0.484619140625,-0.181640625,-0.44879150390625,-0.72857666015625,-0.5,4.0625,-2.375,0.16455078125,0.84375,0.43896484375
87,1596961766246442,-0.4852294921875,-0.18206787109375,-0.44805908203125,-0.728515625,1.9375,-2.9375,-0.25,0.11181640625,0.85205078125,0.412109375
88,1596961766268444,-0.48486328125,-0.1810302734375,-0.44866943359375,-0.7286376953125,-4.875,-1.5625,4.0625,0.1796875,0.84912109375,0.4619140625
89,1596961766288444,-0.48358154296875,-0.18023681640625,-0.4498291015625,-0.72900390625,-6.125,2.4375,3.8125,0.1728515625,0.8056640625,0.48681640625
90,1596961766306446,-0.48223876953125,-0.18072509765625,-0.4512939453125,-0.7288818359375,-4.3125,10.625,1.6875,0.1943359375,0.81982421875,0.46728515625
91,1596961766328443,-0.48004150390625,-0.18212890625,-0.452392578125,-0.729248046875,-9.9375,12.25,1.6875,0.0927734375,0.814453125,0.40771484375
92,1596961766348444,-0.479736328125,-0.181640625,-0.45379638671875,-0.72869873046875,-7.1875,1.75,12.625,0.09375,0.84130859375,0.384765625
93,1596961766370442,-0.47845458984375,-0.17816162109375,-0.45672607421875,-0.7286376953125,-17.9375,-3.6875,21.75,0.146484375,0.8095703125,0.43994140625
94,1596961766388443,-0.47711181640625,-0.17364501953125,-0.4600830078125,-0.72845458984375,-18.75,-7.0625,26.6875,0.1494140625,0.79052734375,0.4736328125
95,1596961766408442,-0.4736328125,-0.16864013671875,-0.4635009765625,-0.729736328125,-29.5625,-4.5625,20.625,0.19970703125,0.830078125,0.56982421875
96,1596961766430445,-0.4705810546875,-0.16259765625,-0.46697998046875,-0.73089599609375,-31.4375,-10.9375,27.375,0.17138671875,0.87451171875,0.595703125
97,1596961766449445,-0.4732666015625,-0.15875244140625,-0.46826171875,-0.72918701171875,-1.5,-19.5625,26.9375,0.158203125,0.92138671875,0.45166015625
98,1596961766469443,-0.476318359375,-0.15399169921875,-0.47021484375,-0.7269287109375,-0.5,-13.4375,19.75,0.41845703125,0.9345703125,0.47265625
99,1596961766490518,-0.47039794921875,-0.149169921875,-0.47747802734375,-0.72705078125,-18.625,14.5,28.5625,0.3212890625,0.57177734375,0.798828125
100,1596961766508443,-0.4715576171875,-0.15118408203125,-0.48382568359375,-0.72161865234375,41.8125,19.4375,38.3125,0.0830078125,0.3955078125,0.62841796875
