index,timestamp,orientation_x,orientation_y,orientation_z,orientation_w,gyroscope_x,gyroscope_y,gyroscope_z,acceleration_x,acceleration_y,acceleration_z
0,1596831818299898,-0.0205078125,0.22088623046875,-0.93017578125,-0.2926025390625,-30.3125,47.875,4.8125,0.35595703125,-0.6025390625,1.40283203125
1,1596831818316897,-0.01129150390625,0.2220458984375,-0.93115234375,-0.28912353515625,-27.375,24.1875,24.75,-0.12744140625,-0.34033203125,1.0185546875
2,1596831818335896,-0.00531005859375,0.22540283203125,-0.9307861328125,-0.287841796875,-42.375,13.6875,11.375,0.01025390625,-0.31787109375,1.15625
3,1596831818358896,-0.001953125,0.23455810546875,-0.92742919921875,-0.29150390625,-56.625,2.0,-23.4375,0.07763671875,-0.54248046875,1.044921875
4,1596831818376895,-0.0003662109375,0.2393798828125,-0.9248046875,-0.29583740234375,-23.25,4.375,-27.375,0.13427734375,-0.62841796875,0.98583984375
5,1596831818395895,-0.00042724609375,0.23876953125,-0.923583984375,-0.29998779296875,6.4375,8.5625,-24.125,0.18359375,-0.5400390625,0.92138671875
6,1596831818418898,0.00048828125,0.23822021484375,-0.9228515625,-0.30279541015625,0.625,9.9375,-14.875,0.142578125,-0.4365234375,0.8701171875
7,1596831818436895,0.00140380859375,0.23974609375,-0.9217529296875,-0.30487060546875,-8.375,4.375,-12.0625,0.13232421875,-0.47607421875,0.853515625
8,1596831818463895,0.00152587890625,0.241943359375,-0.92034912109375,-0.30743408203125,-6.375,3.1875,-15.875,0.18310546875,-0.544921875,0.84716796875
9,1596831818478895,0.0010986328125,0.2418212890625,-0.91937255859375,-0.31036376953125,7.75,4.4375,-17.75,0.18310546875,-0.556640625,0.859375
10,1596831818496895,0.0,0.239501953125,-0.9193115234375,-0.31243896484375,20.9375,4.6875,-12.0,0.19921875,-0.533203125,0.8408203125
11,1596831818523895,-0.0001220703125,0.2369384765625,-0.91943359375,-0.31396484375,17.0,6.9375,-7.9375,0.1552734375,-0.46142578125,0.84521484375
12,1596831818538896,0.000244140625,0.23492431640625,-0.91943359375,-0.31536865234375,9.875,6.625,-7.625,0.1357421875,-0.43310546875,0.88818359375
13,1596831818556896,0.00103759765625,0.2344970703125,-0.91900634765625,-0.31707763671875,0.625,6.1875,-9.3125,0.13623046875,-0.4521484375,0.919921875
14,1596831818575895,0.0018310546875,0.2340087890625,-0.9185791015625,-0.31854248046875,0.875,5.8125,-7.8125,0.13916015625,-0.4755859375,0.962890625
15,1596831818598895,0.00177001953125,0.232421875,-0.91864013671875,-0.319580078125,8.25,2.25,-6.5,0.12939453125,-0.466796875,0.9794921875
16,1596831818616898,0.00091552734375,0.23052978515625,-0.918701171875,-0.32080078125,9.8125,-0.375,-7.5,0.1455078125,-0.42919921875,0.96435546875
17,1596831818635896,-0.00042724609375,0.22845458984375,-0.9188232421875,-0.32196044921875,10.5,-2.0625,-7.3125,0.14697265625,-0.39697265625,0.947265625
18,1596831818658895,-0.001708984375,0.2275390625,-0.91864013671875,-0.32305908203125,3.4375,-3.5,-7.0625,0.16162109375,-0.38037109375,0.93115234375
19,1596831818691896,-0.00262451171875,0.22747802734375,-0.91839599609375,-0.32373046875,-0.6875,-4.4375,-5.3125,0.15185546875,-0.40869140625,0.9609375
20,1596831818695895,-0.00396728515625,0.22747802734375,-0.91827392578125,-0.3240966796875,2.8125,-8.1875,-4.5,0.13916015625,-0.4521484375,0.955078125
21,1596831818718899,-0.00604248046875,0.22705078125,-0.918212890625,-0.32464599609375,7.0625,-9.875,-6.25,0.1591796875,-0.44580078125,0.931640625
22,1596831818743895,-0.00830078125,0.22686767578125,-0.91796875,-0.325439453125,5.9375,-10.3125,-7.625,0.1728515625,-0.447265625,0.9375
23,1596831818755895,-0.01043701171875,0.22698974609375,-0.91766357421875,-0.32598876953125,4.25,-11.625,-7.0625,0.162109375,-0.44970703125,0.9423828125
24,1596831818778895,-0.012451171875,0.22760009765625,-0.9173583984375,-0.32635498046875,-0.25,-12.875,-5.625,0.150390625,-0.4140625,0.916015625
25,1596831818803896,-0.014404296875,0.2293701171875,-0.9168701171875,-0.326416015625,-8.4375,-14.5625,-3.625,0.16796875,-0.39990234375,0.9345703125
26,1596831818823896,-0.015869140625,0.23291015625,-0.91607666015625,-0.326171875,-18.75,-14.9375,-1.6875,0.18017578125,-0.3896484375,0.892578125
27,1596831818838895,-0.01678466796875,0.237548828125,-0.91510009765625,-0.325439453125,-25.5625,-13.9375,1.9375,0.18798828125,-0.3837890625,0.8603515625
28,1596831818856896,-0.0162353515625,0.24359130859375,-0.91387939453125,-0.32452392578125,-38.8125,-10.6875,4.25,0.173828125,-0.36865234375,0.89501953125
29,1596831818877895,-0.01495361328125,0.25006103515625,-0.91278076171875,-0.32275390625,-36.8125,-9.25,8.75,0.17236328125,-0.4677734375,0.88818359375
30,1596831818898895,-0.01397705078125,0.2537841796875,-0.9124755859375,-0.32080078125,-16.625,-4.875,10.0625,0.1806640625,-0.5380859375,0.87548828125
31,1596831818920897,-0.0142822265625,0.25323486328125,-0.9132080078125,-0.31903076171875,7.0,-1.75,10.3125,0.21435546875,-0.50146484375,0.8896484375
32,1596831818937897,-0.01495361328125,0.24981689453125,-0.914794921875,-0.317138671875,19.5625,-1.125,11.1875,0.1767578125,-0.44580078125,0.923828125
33,1596831818958895,-0.01507568359375,0.2481689453125,-0.9158935546875,-0.3153076171875,7.9375,-0.5625,11.4375,0.18603515625,-0.42724609375,0.92822265625
34,1596831818980895,-0.01470947265625,0.24676513671875,-0.91705322265625,-0.31304931640625,7.125,0.125,14.0,0.18017578125,-0.46630859375,0.96435546875
35,1596831818997895,-0.01434326171875,0.244384765625,-0.91845703125,-0.3106689453125,16.25,1.5,14.4375,0.18408203125,-0.5361328125,1.00244140625
36,1596831819018897,-0.01483154296875,0.2391357421875,-0.92059326171875,-0.30853271484375,32.5,3.1875,13.25,0.19091796875,-0.517578125,1.0263671875
37,1596831819040895,-0.01629638671875,0.23065185546875,-0.92315673828125,-0.3072509765625,55.5,4.0625,7.0625,0.169921875,-0.544921875,1.02197265625
38,1596831819058896,-0.01776123046875,0.221435546875,-0.92596435546875,-0.30548095703125,60.9375,3.0625,8.625,0.13427734375,-0.53466796875,1.001953125
39,1596831819078896,-0.0211181640625,0.208251953125,-0.92901611328125,-0.30523681640625,82.1875,4.5625,0.5625,0.18359375,-0.474609375,1.06396484375
40,1596831819100897,-0.02484130859375,0.19329833984375,-0.93218994140625,-0.30517578125,87.875,7.375,0.0625,0.2001953125,-0.376953125,1.08056640625
41,1596831819117898,-0.0269775390625,0.1812744140625,-0.9345703125,-0.30517578125,68.0625,9.375,0.375,0.16943359375,-0.314453125,1.02734375
42,1596831819138895,-0.0286865234375,0.171630859375,-0.9364013671875,-0.3048095703125,55.0,5.9375,1.4375,0.15234375,-0.32275390625,1.06298828125
43,1596831819160895,-0.03057861328125,0.1639404296875,-0.93798828125,-0.30401611328125,51.3125,1.375,2.75,0.1552734375,-0.392578125,1.03466796875
44,1596831819177897,-0.03399658203125,0.1541748046875,-0.93951416015625,-0.3040771484375,66.4375,-1.0625,-3.9375,0.16796875,-0.3896484375,1.0205078125
45,1596831819205895,-0.0380859375,0.1429443359375,-0.94073486328125,-0.3052978515625,72.125,-0.75,-10.4375,0.16552734375,-0.2978515625,0.95751953125
46,1596831819220897,-0.04351806640625,0.13104248046875,-0.94146728515625,-0.30767822265625,73.625,-8.375,-19.375,0.13525390625,-0.2265625,0.98583984375
47,1596831819238896,-0.050537109375,0.12066650390625,-0.94158935546875,-0.3104248046875,72.375,-18.25,-23.25,0.16015625,-0.2685546875,0.9736328125
48,1596831819258895,-0.059326171875,0.109130859375,-0.94146728515625,-0.31353759765625,83.125,-20.25,-26.8125,0.24462890625,-0.25341796875,0.94873046875
49,1596831819280895,-0.069091796875,0.09686279296875,-0.94140625,-0.3157958984375,85.1875,-25.9375,-22.5,0.2119140625,-0.1572265625,0.830078125
50,1596831819298896,-0.08026123046875,0.086181640625,-0.9410400390625,-0.31732177734375,83.8125,-36.3125,-20.3125,0.22509765625,-0.18994140625,0.79150390625
51,1596831819318897,-0.09259033203125,0.07403564453125,-0.939697265625,-0.32098388671875,82.25,-38.3125,-32.625,0.25927734375,-0.0166015625,0.82861328125
52,1596831819341895,-0.10443115234375,0.0616455078125,-0.9381103515625,-0.32452392578125,78.25,-36.5,-31.5625,0.24853515625,0.0712890625,0.787109375
53,1596831819358896,-0.11370849609375,0.0540771484375,-0.93682861328125,-0.326416015625,50.6875,-29.5,-18.6875,0.28515625,0.05908203125,0.75439453125
54,1596831819378896,-0.11907958984375,0.04888916015625,-0.93597412109375,-0.32781982421875,30.625,-14.3125,-12.6875,0.2939453125,0.0791015625,0.83154296875
55,1596831819400897,-0.121826171875,0.046875,-0.93536376953125,-0.32879638671875,14.0,-8.5,-7.875,0.2607421875,0.01123046875,0.830078125
56,1596831819418898,-0.12347412109375,0.04400634765625,-0.93499755859375,-0.32977294921875,17.0,-0.4375,-8.3125,0.28271484375,0.00390625,0.896484375
57,1596831819438895,-0.12420654296875,0.04022216796875,-0.93499755859375,-0.32989501953125,22.625,2.9375,-3.9375,0.24072265625,-0.0087890625,0.9169921875
58,1596831819460895,-0.1243896484375,0.03594970703125,-0.9351806640625,-0.3297119140625,25.5,8.0625,-2.3125,0.255859375,-0.01611328125,0.92333984375
59,1596831819478896,-0.124755859375,0.03204345703125,-0.935302734375,-0.32965087890625,19.625,5.0625,-1.75,0.2333984375,0.05224609375,0.91064453125
60,1596831819498895,-0.1251220703125,0.03070068359375,-0.9351806640625,-0.330078125,1.25,0.75,-2.0625,0.2470703125,0.11474609375,0.92138671875
61,1596831819520897,-0.12432861328125,0.0316162109375,-0.9349365234375,-0.33099365234375,-4.9375,2.625,-5.0625,0.2666015625,-0.01171875,1.01171875
62,1596831819538896,-0.12432861328125,0.02984619140625,-0.93511962890625,-0.33056640625,15.6875,3.9375,-0.3125,0.2568359375,-0.05810546875,0.9609375
63,1596831819558895,-0.12506103515625,0.02618408203125,-0.9351806640625,-0.33038330078125,18.75,3.875,-0.9375,0.25634765625,0.06396484375,0.92919921875
64,1596831819580895,-0.125732421875,0.0240478515625,-0.93499755859375,-0.33087158203125,5.75,0.9375,-2.9375,0.2412109375,0.130859375,0.90283203125
65,1596831819598896,-0.12469482421875,0.02569580078125,-0.934814453125,-0.33160400390625,-13.8125,2.375,-2.5625,0.25244140625,0.07421875,0.9775390625
66,1596831819618897,-0.1231689453125,0.02728271484375,-0.93511962890625,-0.331298828125,-3.4375,4.5625,1.6875,0.23486328125,-0.0830078125,0.95556640625
67,1596831819657895,-0.1229248046875,0.02471923828125,-0.93548583984375,-0.33056640625,17.5625,6.5,1.8125,0.2490234375,-0.0234375,0.9736328125
68,1596831819660896,-0.1231689453125,0.02130126953125,-0.93548583984375,-0.33056640625,13.125,3.5,-0.8125,0.22021484375,0.12548828125,0.96044921875
69,1596831819678895,-0.12274169921875,0.0213623046875,-0.9354248046875,-0.33099365234375,-4.75,2.0625,-1.75,0.240234375,0.08837890625,0.95947265625
70,1596831819700898,-0.12200927734375,0.02227783203125,-0.93548583984375,-0.3310546875,-3.5625,2.375,-0.0625,0.240234375,-0.00439453125,0.958984375
71,1596831819718899,-0.12158203125,0.0213623046875,-0.93572998046875,-0.33056640625,6.4375,4.25,2.0625,0.2421875,0.0126953125,0.9658203125
72,1596831819738895,-0.12139892578125,0.02008056640625,-0.9359130859375,-0.33013916015625,6.875,3.5,1.8125,0.23828125,0.03759765625,0.9560546875
73,1596831819760895,-0.12109375,0.018798828125,-0.93597412109375,-0.33026123046875,5.25,4.1875,-1.375,0.23681640625,0.06103515625,0.966796875
74,1596831819778896,-0.12042236328125,0.01837158203125,-0.93603515625,-0.3302001953125,0.1875,4.125,0.3125,0.23193359375,0.0546875,0.9638671875
75,1596831819798896,-0.11981201171875,0.01776123046875,-0.93634033203125,-0.32958984375,3.4375,4.6875,3.375,0.23974609375,0.033203125,0.962890625
76,1596831819837895,-0.119873046875,0.0159912109375,-0.936767578125,-0.3284912109375,9.625,2.625,5.5,0.2177734375,0.05859375,0.9453125
77,1596831819840897,-0.1201171875,0.0145263671875,-0.93707275390625,-0.32769775390625,5.625,1.0,4.5625,0.2236328125,0.0966796875,0.95068359375
78,1596831819859895,-0.11968994140625,0.014892578125,-0.93731689453125,-0.32708740234375,-2.75,0.75,4.25,0.22509765625,0.05712890625,0.99560546875
79,1596831819880896,-0.1190185546875,0.01611328125,-0.93768310546875,-0.32623291015625,-0.0625,1.3125,4.375,0.2314453125,-0.0615234375,0.9716796875
80,1596831819898896,-0.1195068359375,0.01458740234375,-0.93792724609375,-0.32537841796875,13.75,1.0625,3.0625,0.2421875,-0.00927734375,0.9677734375
81,1596831819919896,-0.12017822265625,0.01324462890625,-0.93798828125,-0.3250732421875,6.25,-2.0,1.375,0.21630859375,0.09130859375,0.9453125
82,1596831819940895,-0.1201171875,0.0142822265625,-0.9378662109375,-0.3253173828125,-7.9375,-2.0625,-0.5,0.23583984375,0.0810546875,0.9912109375
83,1596831819958896,-0.11968994140625,0.015380859375,-0.93798828125,-0.3250732421875,-2.25,0.5,1.1875,0.23486328125,-0.01708984375,0.96435546875
84,1596831819979895,-0.12005615234375,0.01373291015625,-0.93829345703125,-0.32427978515625,12.375,2.875,3.0625,0.25634765625,0.0166015625,0.970703125
85,1596831820001901,-0.12042236328125,0.0115966796875,-0.93841552734375,-0.32373046875,11.3125,1.5,1.875,0.2275390625,0.0732421875,0.9775390625
86,1596831820018899,-0.12042236328125,0.01141357421875,-0.93841552734375,-0.3238525390625,-1.4375,-0.8125,0.0,0.22509765625,0.095703125,1.00537109375
87,1596831820039896,-0.12030029296875,0.01239013671875,-0.93829345703125,-0.3240966796875,-5.5,-1.4375,-0.875,0.2373046875,0.05078125,0.9970703125
88,1596831820068898,-0.1204833984375,0.01226806640625,-0.93841552734375,-0.32379150390625,2.375,-0.5,1.25,0.23681640625,0.03466796875,0.97119140625
89,1596831820078896,-0.120849609375,0.0113525390625,-0.93841552734375,-0.32354736328125,4.9375,0.5,0.9375,0.24365234375,0.068359375,0.955078125
90,1596831820099896,-0.120849609375,0.01080322265625,-0.93841552734375,-0.32354736328125,0.375,1.125,0.0,0.23291015625,0.095703125,0.95556640625
91,1596831820121897,-0.12042236328125,0.0111083984375,-0.9384765625,-0.32366943359375,-3.0,1.8125,-0.25,0.23828125,0.06103515625,0.98193359375
92,1596831820138896,-0.1202392578125,0.01080322265625,-0.9385986328125,-0.3233642578125,4.125,1.6875,1.25,0.228515625,0.02099609375,0.962890625
93,1596831820159896,-0.120849609375,0.00897216796875,-0.9385986328125,-0.3232421875,7.5,0.4375,-0.0625,0.23193359375,0.1103515625,0.9560546875
94,1596831820180895,-0.12103271484375,0.00860595703125,-0.93841552734375,-0.32354736328125,-2.125,-0.5,-1.125,0.22900390625,0.1220703125,0.95068359375
95,1596831820199897,-0.12103271484375,0.00897216796875,-0.93841552734375,-0.32354736328125,-4.3125,-0.5,0.5625,0.23095703125,0.09130859375,0.94970703125
96,1596831820221898,-0.12078857421875,0.00927734375,-0.93853759765625,-0.3233642578125,-1.0625,1.1875,1.4375,0.232421875,0.048828125,0.943359375
97,1596831820241895,-0.12091064453125,0.00811767578125,-0.93865966796875,-0.322998046875,7.4375,1.5,1.0,0.2314453125,0.048828125,0.9716796875
98,1596831820258898,-0.12109375,0.00665283203125,-0.9385986328125,-0.32305908203125,6.125,1.5,-0.875,0.22705078125,0.09326171875,0.96240234375
99,1596831820281896,-0.12109375,0.00677490234375,-0.93853759765625,-0.32330322265625,-2.0,-0.6875,-1.3125,0.22314453125,0.08349609375,0.9580078125
100,1596831820301897,-0.1212158203125,0.0079345703125,-0.9383544921875,-0.32373046875,-5.8125,-2.5,-2.0625,0.2255859375,0.05224609375,0.93505859375
