index,timestamp,orientation_x,orientation_y,orientation_z,orientation_w,gyroscope_x,gyroscope_y,gyroscope_z,acceleration_x,acceleration_y,acceleration_z
0,1597652851534736,-0.4488525390625,0.3203125,-0.56414794921875,0.61456298828125,-0.0625,0.0625,-0.1875,0.11279296875,-0.94970703125,0.41064453125
1,1597652851550748,-0.4488525390625,0.3203125,-0.56414794921875,0.61456298828125,-0.5625,0.0,0.125,0.11474609375,-0.9453125,0.4033203125
2,1597652851573934,-0.44915771484375,0.32049560546875,-0.56396484375,0.6143798828125,-2.0625,-0.5,0.1875,0.1220703125,-0.95654296875,0.40234375
3,1597652851594910,-0.44915771484375,0.32049560546875,-0.56396484375,0.6143798828125,-0.125,0.0625,0.125,0.1171875,-0.958984375,0.40869140625
4,1597652851611170,-0.44879150390625,0.32037353515625,-0.5640869140625,0.61456298828125,2.3125,0.8125,0.0,0.10888671875,-0.94970703125,0.41015625
5,1597652851633912,-0.448486328125,0.3204345703125,-0.56414794921875,0.61474609375,1.25,0.5,0.1875,0.1025390625,-0.9453125,0.41015625
6,1597652851655078,-0.44842529296875,0.3204345703125,-0.56414794921875,0.61480712890625,0.5,-0.1875,0.25,0.109375,-0.9482421875,0.41552734375
7,1597652851671074,-0.4486083984375,0.32049560546875,-0.56402587890625,0.61468505859375,-1.625,-0.375,0.25,0.12060546875,-0.94970703125,0.4111328125
8,1597652851693918,-0.4486083984375,0.32037353515625,-0.56390380859375,0.6148681640625,1.1875,-1.0625,1.0,0.119140625,-0.9560546875,0.4013671875
9,1597652851714912,-0.44830322265625,0.320068359375,-0.56414794921875,0.6151123046875,2.9375,0.125,-0.1875,0.1171875,-0.947265625,0.4111328125
10,1597652851730913,-0.447998046875,0.320068359375,-0.56427001953125,0.61517333984375,0.9375,1.0,-0.0625,0.11083984375,-0.94189453125,0.412109375
11,1597652851753921,-0.44891357421875,0.3214111328125,-0.5633544921875,0.61468505859375,-9.75,-0.0625,2.8125,0.1064453125,-0.97998046875,0.41015625
12,1597652851774917,-0.448486328125,0.32232666015625,-0.562255859375,0.61553955078125,-1.4375,-0.4375,8.0,0.0986328125,-1.041015625,0.44580078125
13,1597652851790288,-0.446044921875,0.32366943359375,-0.56146240234375,0.6173095703125,8.9375,6.625,14.3125,0.0751953125,-0.99609375,0.39990234375
14,1597652851813921,-0.443115234375,0.32452392578125,-0.5625,0.6180419921875,6.625,11.3125,1.9375,0.025390625,-0.8759765625,0.4541015625
15,1597652851835920,-0.4425048828125,0.32427978515625,-0.5626220703125,0.618408203125,2.75,-0.0625,-0.1875,0.07666015625,-0.92138671875,0.4208984375
16,1597652851851162,-0.4420166015625,0.32330322265625,-0.5626220703125,0.6192626953125,7.0625,-2.0,4.6875,0.15771484375,-0.95751953125,0.42138671875
17,1597652851873919,-0.44061279296875,0.3232421875,-0.5626220703125,0.620361328125,8.0,2.25,6.5,0.10400390625,-0.94482421875,0.4150390625
18,1597652851896344,-0.43939208984375,0.323974609375,-0.5626220703125,0.620849609375,4.0625,5.875,5.75,0.09521484375,-0.95458984375,0.412109375
19,1597652851911367,-0.4378662109375,0.3238525390625,-0.5635986328125,0.62103271484375,8.1875,7.375,0.9375,0.11669921875,-0.93798828125,0.41357421875
20,1597652851935293,-0.43743896484375,0.3248291015625,-0.5640869140625,0.62042236328125,-2.4375,9.125,3.6875,0.1533203125,-0.91162109375,0.412109375
21,1597652851956128,-0.4375,0.3270263671875,-0.564208984375,0.61907958984375,-9.625,10.9375,1.9375,0.11083984375,-0.91455078125,0.39306640625
22,1597652851971128,-0.4381103515625,0.3302001953125,-0.56298828125,0.61810302734375,-16.4375,6.75,4.9375,0.04345703125,-0.94189453125,0.39453125
23,1597652851993097,-0.43927001953125,0.33203125,-0.56231689453125,0.616943359375,-14.375,3.125,0.1875,0.07568359375,-0.97900390625,0.4248046875
24,1597652852016303,-0.43988037109375,0.33294677734375,-0.5625,0.6158447265625,-6.25,3.8125,-2.5625,0.09375,-0.94873046875,0.3828125
25,1597652852030082,-0.4403076171875,0.33343505859375,-0.5621337890625,0.6156005859375,-3.8125,0.3125,1.5,0.10107421875,-0.966796875,0.40185546875
26,1597652852053721,-0.4398193359375,0.333740234375,-0.56219482421875,0.61572265625,1.1875,2.6875,1.8125,0.0849609375,-0.97412109375,0.41259765625
27,1597652852076257,-0.4388427734375,0.33428955078125,-0.56219482421875,0.61614990234375,2.6875,2.875,2.1875,0.04345703125,-0.955078125,0.4111328125
28,1597652852090437,-0.4384765625,0.33404541015625,-0.56219482421875,0.61651611328125,2.8125,-0.375,1.1875,0.0849609375,-0.95166015625,0.40673828125
29,1597652852119345,-0.43853759765625,0.333740234375,-0.5623779296875,0.61651611328125,1.6875,-0.3125,-0.625,0.10009765625,-0.9453125,0.3984375
30,1597652852136209,-0.43829345703125,0.333740234375,-0.56243896484375,0.6165771484375,0.375,1.125,1.125,0.09130859375,-0.94140625,0.41259765625
31,1597652852141342,-0.4381103515625,0.333984375,-0.56243896484375,0.6165771484375,-0.5,1.125,0.625,0.080078125,-0.951171875,0.4111328125
32,1597652852157344,-0.43792724609375,0.33428955078125,-0.5623779296875,0.6165771484375,-0.1875,1.25,0.375,0.06982421875,-0.94580078125,0.400390625
33,1597652852178995,-0.438232421875,0.33416748046875,-0.5623779296875,0.616455078125,-0.6875,-1.375,-1.125,0.0830078125,-0.94091796875,0.39697265625
34,1597652852201432,-0.4385986328125,0.33392333984375,-0.56256103515625,0.61614990234375,-1.0,-0.25,-1.1875,0.1103515625,-0.9462890625,0.40380859375
35,1597652852217427,-0.4384765625,0.3343505859375,-0.5626220703125,0.615966796875,-0.75,2.1875,0.1875,0.08056640625,-0.98193359375,0.4150390625
36,1597652852238508,-0.43798828125,0.334716796875,-0.5625,0.6162109375,0.875,1.3125,0.9375,0.0517578125,-0.9609375,0.4111328125
37,1597652852261666,-0.43792724609375,0.3349609375,-0.56256103515625,0.6160888671875,-1.125,0.9375,-1.375,0.06298828125,-0.9423828125,0.40673828125
38,1597652852277865,-0.4385986328125,0.334716796875,-0.56243896484375,0.61578369140625,-2.6875,-2.5625,-1.4375,0.09521484375,-0.94775390625,0.40185546875
39,1597652852298640,-0.43865966796875,0.33465576171875,-0.5625,0.61578369140625,-0.0625,0.1875,-0.4375,0.109375,-0.95263671875,0.41552734375
40,1597652852321458,-0.43829345703125,0.335205078125,-0.56243896484375,0.6158447265625,-0.25,1.9375,0.6875,0.05712890625,-0.95458984375,0.404296875
41,1597652852337651,-0.4384765625,0.33563232421875,-0.56195068359375,0.6158447265625,-2.75,-0.9375,0.375,0.05322265625,-0.95947265625,0.40087890625
42,1597652852359449,-0.43890380859375,0.33544921875,-0.561767578125,0.61590576171875,0.0625,-2.625,-0.125,0.08740234375,-0.97314453125,0.3984375
43,1597652852382167,-0.43890380859375,0.3348388671875,-0.561767578125,0.6162109375,3.4375,-2.25,-0.1875,0.091796875,-0.9462890625,0.39208984375
44,1597652852399296,-0.43890380859375,0.33447265625,-0.56170654296875,0.616455078125,1.6875,-2.0625,0.625,0.0888671875,-0.94873046875,0.40087890625
45,1597652852419177,-0.43896484375,0.33428955078125,-0.56158447265625,0.6165771484375,0.5,-1.0625,0.3125,0.08447265625,-0.9580078125,0.4072265625
46,1597652852440966,-0.4388427734375,0.3343505859375,-0.56134033203125,0.6168212890625,1.0625,-1.3125,0.5,0.0595703125,-0.96337890625,0.3984375
47,1597652852459448,-0.4385986328125,0.33392333984375,-0.5614013671875,0.61724853515625,2.6875,-1.75,-0.1875,0.07177734375,-0.9482421875,0.41748046875
48,1597652852478975,-0.438720703125,0.33343505859375,-0.56134033203125,0.617431640625,1.75,-2.3125,-0.0625,0.0947265625,-0.939453125,0.39892578125
49,1597652852500975,-0.438720703125,0.3333740234375,-0.5614013671875,0.617431640625,-0.1875,-0.4375,-0.9375,0.1044921875,-0.94384765625,0.416015625
50,1597652852518955,-0.4388427734375,0.33367919921875,-0.561279296875,0.6173095703125,-1.625,0.625,0.1875,0.0791015625,-0.96435546875,0.4072265625
51,1597652852538979,-0.43914794921875,0.33428955078125,-0.560791015625,0.6171875,-3.75,-0.5,0.4375,0.05517578125,-0.9697265625,0.4033203125
52,1597652852561149,-0.439453125,0.33416748046875,-0.5606689453125,0.6171875,-0.25,-1.8125,-0.875,0.07763671875,-0.9638671875,0.39990234375
53,1597652852583859,-0.43951416015625,0.33367919921875,-0.56097412109375,0.6170654296875,1.125,-0.5625,-1.5,0.10302734375,-0.9462890625,0.412109375
54,1597652852598858,-0.43951416015625,0.3336181640625,-0.56097412109375,0.6170654296875,-0.0625,0.6875,-0.625,0.0966796875,-0.9453125,0.408203125
55,1597652852621869,-0.43951416015625,0.33367919921875,-0.56097412109375,0.6170654296875,-0.75,0.0,0.25,0.078125,-0.9560546875,0.4111328125
56,1597652852647003,-0.439697265625,0.33367919921875,-0.56085205078125,0.6170654296875,-0.9375,-1.0625,-0.6875,0.07470703125,-0.96044921875,0.40576171875
57,1597652852660864,-0.439697265625,0.33367919921875,-0.56085205078125,0.6170654296875,0.3125,-0.4375,-0.6875,0.0849609375,-0.96484375,0.40625
58,1597652852681821,-0.439697265625,0.33367919921875,-0.5609130859375,0.6170654296875,0.1875,0.9375,-0.625,0.09130859375,-0.94921875,0.41455078125
59,1597652852705421,-0.43988037109375,0.33404541015625,-0.560791015625,0.61676025390625,-3.0625,0.875,-0.4375,0.0771484375,-0.95166015625,0.41015625
60,1597652852718392,-0.4400634765625,0.3343505859375,-0.56060791015625,0.61663818359375,-2.1875,-0.0625,0.25,0.076171875,-0.9638671875,0.400390625
61,1597652852741584,-0.4400634765625,0.33441162109375,-0.56060791015625,0.61663818359375,-0.5,-0.3125,-0.125,0.07666015625,-0.95751953125,0.40380859375
62,1597652852764395,-0.44036865234375,0.33428955078125,-0.56048583984375,0.61663818359375,-0.8125,-1.4375,-0.5,0.08642578125,-0.95458984375,0.400390625
63,1597652852778926,-0.44097900390625,0.33404541015625,-0.5604248046875,0.6163330078125,-2.6875,-2.1875,-1.75,0.09326171875,-0.939453125,0.4033203125
64,1597652852800906,-0.4422607421875,0.33453369140625,-0.5596923828125,0.61578369140625,-10.3125,-3.625,-1.5625,0.06982421875,-0.95068359375,0.41943359375
65,1597652852823909,-0.4453125,0.3358154296875,-0.557861328125,0.61456298828125,-22.6875,-8.625,-1.5625,0.05859375,-0.943359375,0.40283203125
66,1597652852838907,-0.44854736328125,0.33734130859375,-0.5560302734375,0.613037109375,-23.5625,-6.4375,-0.25,0.09716796875,-0.95947265625,0.3818359375
67,1597652852860907,-0.45037841796875,0.33843994140625,-0.55511474609375,0.6119384765625,-13.1875,-1.8125,-0.125,0.107421875,-0.9970703125,0.37060546875
68,1597652852884037,-0.4505615234375,0.33880615234375,-0.554931640625,0.61175537109375,-1.8125,0.75,0.625,0.08984375,-0.98095703125,0.376953125
69,1597652852899886,-0.45001220703125,0.338623046875,-0.55517578125,0.612060546875,4.125,1.1875,0.3125,0.0849609375,-0.978515625,0.37548828125
70,1597652852924934,-0.44927978515625,0.3382568359375,-0.5555419921875,0.61248779296875,5.125,0.75,0.375,0.0849609375,-0.9658203125,0.3876953125
71,1597652852944143,-0.44927978515625,0.3382568359375,-0.55548095703125,0.61248779296875,0.75,0.625,0.375,0.06787109375,-0.9609375,0.37841796875
72,1597652852960388,-0.44976806640625,0.33868408203125,-0.55517578125,0.61224365234375,-4.3125,-0.75,-0.0625,0.08203125,-0.95361328125,0.37548828125
73,1597652852981535,-0.4505615234375,0.3388671875,-0.55487060546875,0.61175537109375,-5.375,-1.1875,-0.25,0.107421875,-0.95654296875,0.37646484375
74,1597652853004315,-0.450927734375,0.33905029296875,-0.5546875,0.611572265625,-2.4375,-0.3125,0.5,0.099609375,-0.974609375,0.37744140625
75,1597652853019272,-0.4505615234375,0.33892822265625,-0.5548095703125,0.61181640625,2.75,0.375,0.0625,0.07861328125,-0.9794921875,0.3837890625
76,1597652853041092,-0.449951171875,0.33880615234375,-0.5550537109375,0.61212158203125,3.9375,1.1875,-0.0625,0.07373046875,-0.9736328125,0.37646484375
77,1597652853064149,-0.449462890625,0.33868408203125,-0.55523681640625,0.6123046875,2.5,0.875,-0.0625,0.07666015625,-0.95166015625,0.3837890625
78,1597652853079128,-0.449951171875,0.33905029296875,-0.554931640625,0.612060546875,-4.125,-0.9375,0.0,0.08203125,-0.95166015625,0.375
79,1597652853101381,-0.45037841796875,0.33905029296875,-0.5548095703125,0.61181640625,-2.5625,-0.8125,-0.75,0.09619140625,-0.97021484375,0.3828125
80,1597652853124278,-0.45013427734375,0.33880615234375,-0.554931640625,0.61212158203125,2.375,-0.5,0.3125,0.08642578125,-0.96435546875,0.38330078125
81,1597652853139274,-0.4498291015625,0.33819580078125,-0.5552978515625,0.61236572265625,4.9375,-0.5,-1.1875,0.09375,-0.96728515625,0.37353515625
82,1597652853161408,-0.44927978515625,0.33770751953125,-0.55572509765625,0.61260986328125,4.625,0.5625,-0.8125,0.091796875,-0.955078125,0.38232421875
83,1597652853184752,-0.4493408203125,0.337890625,-0.55560302734375,0.61260986328125,-1.1875,-0.0625,0.125,0.07373046875,-0.95361328125,0.38037109375
84,1597652853198679,-0.44970703125,0.33819580078125,-0.55535888671875,0.61236572265625,-3.3125,-0.625,-0.625,0.080078125,-0.96728515625,0.38232421875
85,1597652853220930,-0.44970703125,0.33819580078125,-0.55535888671875,0.61236572265625,-0.5625,-0.125,-0.5625,0.087890625,-0.9677734375,0.38427734375
86,1597652853243935,-0.44964599609375,0.337890625,-0.55548095703125,0.6124267578125,1.4375,-0.625,-0.8125,0.0908203125,-0.96630859375,0.38134765625
87,1597652853258934,-0.449462890625,0.3375244140625,-0.55584716796875,0.6124267578125,2.5,0.4375,-1.0625,0.09765625,-0.96630859375,0.38427734375
88,1597652853280927,-0.449462890625,0.33758544921875,-0.55584716796875,0.61248779296875,0.8125,0.875,-0.9375,0.08251953125,-0.96826171875,0.38427734375
89,1597652853303953,-0.44964599609375,0.3377685546875,-0.5557861328125,0.61224365234375,-2.125,0.3125,-1.0625,0.0810546875,-0.95751953125,0.380859375
90,1597652853320533,-0.44976806640625,0.33758544921875,-0.5560302734375,0.61199951171875,-0.4375,0.0,-1.5625,0.099609375,-0.9560546875,0.38720703125
91,1597652853341561,-0.44964599609375,0.337158203125,-0.5565185546875,0.6119384765625,1.875,0.5625,-2.1875,0.10107421875,-0.9609375,0.38916015625
92,1597652853363955,-0.44940185546875,0.3367919921875,-0.5570068359375,0.61181640625,2.8125,0.875,-2.75,0.08642578125,-0.9580078125,0.37939453125
93,1597652853380577,-0.44952392578125,0.33648681640625,-0.5574951171875,0.61151123046875,0.125,0.5625,-3.5,0.0947265625,-0.94091796875,0.38525390625
94,1597652853400952,-0.45013427734375,0.33673095703125,-0.557861328125,0.610595703125,-6.0,1.6875,-4.3125,0.0966796875,-0.93701171875,0.3916015625
95,1597652853423951,-0.450927734375,0.33746337890625,-0.558349609375,0.60906982421875,-9.5,3.875,-6.5,0.09130859375,-0.93017578125,0.390625
96,1597652853439954,-0.45196533203125,0.33843994140625,-0.558837890625,0.60736083984375,-11.6875,4.6875,-6.4375,0.10009765625,-0.9384765625,0.3876953125
97,1597652853462058,-0.45367431640625,0.33966064453125,-0.5589599609375,0.60528564453125,-14.1875,3.25,-6.875,0.10302734375,-0.94970703125,0.35546875
98,1597652853483345,-0.45513916015625,0.340087890625,-0.55926513671875,0.6036376953125,-9.0,1.3125,-7.0625,0.11865234375,-0.99267578125,0.35498046875
99,1597652853500381,-0.45538330078125,0.3397216796875,-0.5601806640625,0.602783203125,1.375,2.375,-6.625,0.11669921875,-0.9990234375,0.359375
100,1597652853521539,-0.454345703125,0.339111328125,-0.561279296875,0.60296630859375,8.875,3.375,-3.5,0.09716796875,-0.9873046875,0.3681640625
101,1597652853543506,-0.453369140625,0.3387451171875,-0.5621337890625,0.60308837890625,6.0625,3.25,-3.0,0.08544921875,-0.96875,0.38232421875
