index,timestamp,orientation_x,orientation_y,orientation_z,orientation_w,gyroscope_x,gyroscope_y,gyroscope_z,acceleration_x,acceleration_y,acceleration_z
0,1597652920737462,-0.4376220703125,0.33221435546875,-0.583984375,0.59759521484375,-0.625,0.0625,-0.0625,0.11279296875,-0.955078125,0.40869140625
1,1597652920760485,-0.4376220703125,0.332275390625,-0.58392333984375,0.59759521484375,-0.25,0.5,0.0625,0.11572265625,-0.95556640625,0.40478515625
2,1597652920781463,-0.43768310546875,0.332275390625,-0.58392333984375,0.59759521484375,0.5,0.4375,0.0,0.119140625,-0.94921875,0.4091796875
3,1597652920797652,-0.4376220703125,0.332275390625,-0.58392333984375,0.59759521484375,0.6875,0.125,0.0,0.1103515625,-0.94775390625,0.40625
4,1597652920818460,-0.4376220703125,0.332275390625,-0.58392333984375,0.59759521484375,-0.375,0.25,0.25,0.111328125,-0.95166015625,0.40869140625
5,1597652920840745,-0.4376220703125,0.33233642578125,-0.58392333984375,0.59759521484375,-0.875,0.3125,0.1875,0.115234375,-0.95556640625,0.4111328125
6,1597652920859035,-0.43743896484375,0.33233642578125,-0.5841064453125,0.5975341796875,1.0625,1.5,0.0,0.12646484375,-0.94921875,0.4091796875
7,1597652920878675,-0.4371337890625,0.33251953125,-0.584228515625,0.59747314453125,0.4375,1.9375,0.3125,0.1142578125,-0.939453125,0.412109375
8,1597652920908442,-0.4371337890625,0.33251953125,-0.584228515625,0.5975341796875,0.125,0.5,0.25,0.107421875,-0.94091796875,0.4091796875
9,1597652920918442,-0.4371337890625,0.33251953125,-0.584228515625,0.5975341796875,-0.9375,0.4375,0.0625,0.10302734375,-0.94580078125,0.41064453125
10,1597652920938868,-0.4371337890625,0.3328857421875,-0.58416748046875,0.59735107421875,-1.375,1.0625,0.125,0.115234375,-0.958984375,0.412109375
11,1597652920960886,-0.43682861328125,0.33282470703125,-0.5843505859375,0.59747314453125,1.875,1.3125,0.375,0.123046875,-0.96533203125,0.4169921875
12,1597652920983867,-0.4365234375,0.33294677734375,-0.5843505859375,0.59759521484375,1.75,1.3125,1.125,0.11376953125,-0.96240234375,0.4033203125
13,1597652920998865,-0.43572998046875,0.33258056640625,-0.58477783203125,0.5980224609375,6.25,1.4375,0.5625,0.11328125,-0.9365234375,0.4072265625
14,1597652921020691,-0.4349365234375,0.33233642578125,-0.585205078125,0.5982666015625,4.25,2.375,-0.125,0.1123046875,-0.93017578125,0.419921875
15,1597652921043727,-0.43475341796875,0.3330078125,-0.585205078125,0.5980224609375,-1.625,3.125,0.625,0.10595703125,-0.9580078125,0.41064453125
16,1597652921058755,-0.434814453125,0.33331298828125,-0.58489990234375,0.59814453125,-0.875,-0.625,1.125,0.099609375,-0.9580078125,0.408203125
17,1597652921081078,-0.434814453125,0.33306884765625,-0.5848388671875,0.59832763671875,1.75,-1.25,-0.125,0.1103515625,-0.96044921875,0.4130859375
18,1597652921103725,-0.43316650390625,0.3326416015625,-0.585693359375,0.59893798828125,7.875,4.6875,1.6875,0.123046875,-0.98828125,0.47412109375
19,1597652921118727,-0.43035888671875,0.33428955078125,-0.58563232421875,0.60009765625,7.875,11.875,11.5625,0.08056640625,-0.96923828125,0.41650390625
20,1597652921141358,-0.4290771484375,0.33514404296875,-0.58526611328125,0.600830078125,1.5,2.25,2.0,0.00244140625,-0.91357421875,0.42724609375
21,1597652921163519,-0.43011474609375,0.3343505859375,-0.5831298828125,0.6026611328125,1.0,-16.75,5.5,0.0439453125,-0.990234375,0.419921875
22,1597652921179355,-0.42987060546875,0.33319091796875,-0.58270263671875,0.6038818359375,6.9375,-5.875,5.0625,0.13671875,-0.9716796875,0.43310546875
23,1597652921201349,-0.4268798828125,0.3326416015625,-0.58380126953125,0.60516357421875,17.3125,9.125,6.5625,0.1279296875,-0.97509765625,0.44921875
24,1597652921223099,-0.421875,0.33026123046875,-0.5849609375,0.60894775390625,35.3125,3.5625,11.75,0.0869140625,-0.97900390625,0.4873046875
25,1597652921238100,-0.4183349609375,0.33038330078125,-0.58453369140625,0.6116943359375,18.9375,4.1875,13.6875,0.0234375,-0.908203125,0.41357421875
26,1597652921261111,-0.41680908203125,0.3314208984375,-0.584716796875,0.61199951171875,2.375,9.0,5.9375,0.08740234375,-0.8876953125,0.43701171875
27,1597652921283776,-0.4156494140625,0.33148193359375,-0.58489990234375,0.612548828125,7.4375,5.0625,6.9375,0.13671875,-0.974609375,0.44140625
28,1597652921298112,-0.412353515625,0.32904052734375,-0.58544921875,0.6156005859375,30.5,-0.0625,11.9375,0.13623046875,-0.94384765625,0.42626953125
29,1597652921321395,-0.40826416015625,0.32623291015625,-0.58697509765625,0.61834716796875,32.9375,3.3125,7.5625,0.1123046875,-0.86328125,0.44775390625
30,1597652921343321,-0.4052734375,0.32391357421875,-0.587890625,0.62066650390625,25.75,-1.1875,3.0625,0.04541015625,-0.884765625,0.4560546875
31,1597652921360322,-0.40301513671875,0.32122802734375,-0.588134765625,0.623291015625,24.125,-5.75,6.8125,0.0908203125,-0.88818359375,0.46044921875
32,1597652921381497,-0.4010009765625,0.320068359375,-0.5885009765625,0.62481689453125,15.4375,0.5625,4.3125,0.0673828125,-0.89453125,0.48583984375
33,1597652921404318,-0.3990478515625,0.31939697265625,-0.5892333984375,0.625732421875,12.9375,4.875,3.375,0.08837890625,-0.912109375,0.48876953125
34,1597652921420322,-0.3973388671875,0.31878662109375,-0.58984375,0.62652587890625,11.1875,3.1875,2.3125,0.06982421875,-0.90966796875,0.498046875
35,1597652921441590,-0.39617919921875,0.318115234375,-0.59039306640625,0.62713623046875,9.0625,2.1875,1.5,0.08837890625,-0.9052734375,0.49853515625
36,1597652921463585,-0.39434814453125,0.318359375,-0.59088134765625,0.62762451171875,6.75,7.0,3.5625,0.0625,-0.8857421875,0.50927734375
37,1597652921479589,-0.3936767578125,0.31903076171875,-0.59112548828125,0.6275634765625,0.0625,5.0625,1.1875,0.05517578125,-0.88232421875,0.49853515625
38,1597652921500588,-0.39373779296875,0.3192138671875,-0.59136962890625,0.627197265625,-1.3125,2.125,-0.5625,0.08837890625,-0.89599609375,0.49853515625
39,1597652921523795,-0.39361572265625,0.31939697265625,-0.5911865234375,0.6273193359375,1.125,0.625,1.0,0.05712890625,-0.92041015625,0.4921875
40,1597652921539035,-0.3931884765625,0.3194580078125,-0.59124755859375,0.62750244140625,2.3125,1.1875,1.375,0.06591796875,-0.90869140625,0.49658203125
41,1597652921560588,-0.39251708984375,0.32012939453125,-0.59112548828125,0.627685546875,0.8125,3.25,1.875,0.0361328125,-0.91259765625,0.50341796875
42,1597652921583582,-0.39215087890625,0.3203125,-0.5911865234375,0.62774658203125,1.4375,1.375,0.375,0.05126953125,-0.9033203125,0.4990234375
43,1597652921599850,-0.39208984375,0.32000732421875,-0.59149169921875,0.627685546875,1.8125,0.5,-0.6875,0.08154296875,-0.8916015625,0.494140625
44,1597652921620589,-0.39208984375,0.3199462890625,-0.59149169921875,0.627685546875,0.9375,-0.625,-0.375,0.08251953125,-0.88330078125,0.4970703125
45,1597652921643721,-0.392333984375,0.3204345703125,-0.5914306640625,0.62738037109375,-3.0625,1.5,0.0,0.0703125,-0.91357421875,0.5048828125
46,1597652921659722,-0.39208984375,0.3211669921875,-0.59136962890625,0.627197265625,-2.0,2.6875,0.1875,0.03466796875,-0.91357421875,0.5068359375
47,1597652921680876,-0.39208984375,0.32122802734375,-0.59130859375,0.627197265625,-0.4375,0.1875,0.0625,0.03857421875,-0.9091796875,0.498046875
48,1597652921703848,-0.39251708984375,0.32110595703125,-0.5911865234375,0.62713623046875,-1.1875,-2.1875,-0.625,0.06640625,-0.8896484375,0.4892578125
49,1597652921720226,-0.39300537109375,0.3211669921875,-0.59124755859375,0.62677001953125,-3.0,0.5,-0.75,0.091796875,-0.921875,0.513671875
50,1597652921742557,-0.39227294921875,0.322021484375,-0.591064453125,0.626953125,0.0,3.5625,2.75,0.03125,-0.92578125,0.5107421875
51,1597652921763929,-0.39215087890625,0.322509765625,-0.59112548828125,0.626708984375,-2.3125,2.25,-0.5,0.04736328125,-0.8955078125,0.50537109375
52,1597652921781755,-0.39263916015625,0.32275390625,-0.59100341796875,0.62640380859375,-3.125,0.0,-0.1875,0.07373046875,-0.896484375,0.49169921875
53,1597652921800558,-0.39337158203125,0.32275390625,-0.59088134765625,0.6260986328125,-3.0,-1.375,-0.8125,0.083984375,-0.8974609375,0.4873046875
54,1597652921823958,-0.39312744140625,0.3228759765625,-0.5909423828125,0.6260986328125,1.0,1.3125,0.3125,0.05859375,-0.93896484375,0.50830078125
55,1597652921839969,-0.39227294921875,0.3231201171875,-0.59075927734375,0.62664794921875,3.0,0.8125,1.8125,0.01806640625,-0.9052734375,0.5
56,1597652921860959,-0.392578125,0.32318115234375,-0.5906982421875,0.62646484375,-1.5,-0.9375,-1.375,0.0517578125,-0.90185546875,0.49462890625
57,1597652921883967,-0.39306640625,0.32293701171875,-0.5908203125,0.626220703125,-1.125,-1.0,-0.875,0.0888671875,-0.90185546875,0.4951171875
58,1597652921899956,-0.39306640625,0.32293701171875,-0.5908203125,0.626220703125,-0.5,0.375,-0.3125,0.0654296875,-0.90673828125,0.50537109375
59,1597652921921121,-0.39306640625,0.32293701171875,-0.59075927734375,0.62628173828125,0.5625,0.375,0.125,0.04296875,-0.9208984375,0.4990234375
60,1597652921943954,-0.39288330078125,0.323486328125,-0.590576171875,0.62628173828125,-1.125,0.9375,0.9375,0.0390625,-0.9072265625,0.49267578125
61,1597652921960961,-0.39324951171875,0.32379150390625,-0.59039306640625,0.62603759765625,-3.125,0.125,-0.3125,0.05810546875,-0.90673828125,0.494140625
62,1597652921980951,-0.393798828125,0.32415771484375,-0.59033203125,0.6256103515625,-3.625,0.5625,-0.5,0.07958984375,-0.92138671875,0.494140625
63,1597652922003945,-0.39361572265625,0.32464599609375,-0.59033203125,0.62542724609375,-1.4375,2.5625,0.25,0.05126953125,-0.91650390625,0.5
64,1597652922021502,-0.3935546875,0.3250732421875,-0.5904541015625,0.62518310546875,-1.75,2.1875,-0.5625,0.05029296875,-0.900390625,0.49560546875
65,1597652922041044,-0.39337158203125,0.3255615234375,-0.5904541015625,0.625,-1.6875,2.4375,0.5,0.056640625,-0.908203125,0.50048828125
66,1597652922063705,-0.39324951171875,0.325927734375,-0.59033203125,0.625,-1.375,1.0,0.75,0.0439453125,-0.904296875,0.5
67,1597652922081694,-0.39306640625,0.32586669921875,-0.59039306640625,0.62506103515625,1.375,0.8125,1.125,0.07666015625,-0.8984375,0.48486328125
68,1597652922100891,-0.3929443359375,0.32586669921875,-0.5906982421875,0.6248779296875,-0.125,2.5625,0.0,0.08349609375,-0.89599609375,0.5009765625
69,1597652922124123,-0.39276123046875,0.32666015625,-0.5906982421875,0.62457275390625,-3.125,3.25,0.25,0.04443359375,-0.921875,0.50634765625
70,1597652922141971,-0.392333984375,0.32794189453125,-0.5904541015625,0.62445068359375,-2.875,5.0625,2.875,0.0322265625,-0.9365234375,0.49853515625
71,1597652922160931,-0.3919677734375,0.328857421875,-0.59033203125,0.624267578125,-2.375,3.4375,0.0625,0.017578125,-0.90869140625,0.49267578125
72,1597652922183846,-0.3927001953125,0.3292236328125,-0.59027099609375,0.62371826171875,-4.125,0.125,-1.25,0.06689453125,-0.89697265625,0.46435546875
73,1597652922201775,-0.393798828125,0.3291015625,-0.59014892578125,0.6231689453125,-4.5625,-2.25,-2.125,0.08349609375,-0.89404296875,0.47216796875
74,1597652922220623,-0.39447021484375,0.32952880859375,-0.59039306640625,0.62225341796875,-5.5625,2.625,-1.8125,0.09619140625,-0.93212890625,0.5
75,1597652922243325,-0.3936767578125,0.3311767578125,-0.5904541015625,0.62188720703125,-3.3125,8.125,1.5,0.02197265625,-0.94140625,0.49755859375
76,1597652922261705,-0.3934326171875,0.333251953125,-0.5904541015625,0.620849609375,-8.0625,8.5625,-1.5,0.0009765625,-0.9150390625,0.48388671875
77,1597652922280994,-0.39422607421875,0.33465576171875,-0.590576171875,0.61956787109375,-10.875,5.25,-2.6875,0.05712890625,-0.8994140625,0.47802734375
78,1597652922303728,-0.39569091796875,0.33526611328125,-0.5908203125,0.6180419921875,-10.0,2.25,-4.5625,0.1044921875,-0.89404296875,0.46240234375
79,1597652922321700,-0.39691162109375,0.33575439453125,-0.5911865234375,0.61663818359375,-7.3125,2.4375,-4.4375,0.09912109375,-0.9375,0.47216796875
80,1597652922340926,-0.3961181640625,0.336669921875,-0.59124755859375,0.6165771484375,0.125,4.625,-0.1875,0.001953125,-0.947265625,0.4794921875
81,1597652922363703,-0.395751953125,0.3375244140625,-0.59112548828125,0.616455078125,-2.0625,2.0,-1.625,-0.0078125,-0.9365234375,0.482421875
82,1597652922381721,-0.39605712890625,0.337890625,-0.59100341796875,0.61614990234375,-3.5,-0.5625,-2.25,0.02197265625,-0.93115234375,0.48388671875
83,1597652922400507,-0.3970947265625,0.338134765625,-0.590576171875,0.61578369140625,-5.875,-3.1875,-1.5625,0.0458984375,-0.9169921875,0.46484375
84,1597652922423960,-0.39892578125,0.33782958984375,-0.59100341796875,0.61431884765625,-8.8125,-1.25,-6.5625,0.11962890625,-0.8486328125,0.443359375
85,1597652922446179,-0.40283203125,0.33721923828125,-0.591796875,0.61138916015625,-17.875,-5.625,-16.75,0.134765625,-0.80859375,0.42333984375
86,1597652922462613,-0.4075927734375,0.3365478515625,-0.5921630859375,0.6082763671875,-21.4375,-10.0,-19.1875,0.12939453125,-0.8916015625,0.44384765625
87,1597652922483979,-0.41192626953125,0.33648681640625,-0.59185791015625,0.6055908203125,-21.3125,-10.5625,-16.625,0.0810546875,-0.9453125,0.4501953125
88,1597652922505947,-0.41656494140625,0.33648681640625,-0.59197998046875,0.60235595703125,-23.75,-10.0,-21.875,0.0625,-0.89208984375,0.42724609375
89,1597652922520948,-0.42413330078125,0.3360595703125,-0.5909423828125,0.59832763671875,-32.75,-21.25,-25.875,0.1005859375,-0.90966796875,0.3623046875
90,1597652922543960,-0.431396484375,0.33563232421875,-0.59033203125,0.5938720703125,-34.8125,-16.75,-22.875,0.197265625,-0.96142578125,0.412109375
91,1597652922566235,-0.4359130859375,0.33734130859375,-0.59063720703125,0.58935546875,-30.8125,1.1875,-18.625,0.15966796875,-1.00537109375,0.41796875
92,1597652922582202,-0.4373779296875,0.34149169921875,-0.5911865234375,0.5853271484375,-29.25,16.5,-11.4375,0.07421875,-0.9892578125,0.43310546875
93,1597652922604957,-0.43914794921875,0.3477783203125,-0.5904541015625,0.5810546875,-41.1875,18.25,-7.0,0.0087890625,-0.9619140625,0.41455078125
94,1597652922626371,-0.4420166015625,0.35455322265625,-0.58831787109375,0.576904296875,-48.9375,11.625,-5.875,-0.0361328125,-1.005859375,0.41552734375
95,1597652922642134,-0.44512939453125,0.35888671875,-0.586181640625,0.573974609375,-36.375,1.3125,-5.6875,0.00830078125,-1.08154296875,0.39599609375
96,1597652922663147,-0.4464111328125,0.35919189453125,-0.58526611328125,0.57373046875,-7.25,-6.0625,-2.0,0.09521484375,-1.1044921875,0.39892578125
97,1597652922686273,-0.44488525390625,0.35626220703125,-0.585693359375,0.5762939453125,21.3125,-8.875,1.8125,0.109375,-1.033203125,0.40380859375
98,1597652922702135,-0.4422607421875,0.35174560546875,-0.5867919921875,0.5799560546875,33.625,-11.5625,0.875,0.0908203125,-0.966796875,0.40234375
99,1597652922723135,-0.44000244140625,0.34716796875,-0.587890625,0.583251953125,32.125,-11.9375,0.0,0.10888671875,-0.9443359375,0.400390625
