index,timestamp,orientation_x,orientation_y,orientation_z,orientation_w,gyroscope_x,gyroscope_y,gyroscope_z,acceleration_x,acceleration_y,acceleration_z
0,1597652880852228,-0.42987060546875,0.30120849609375,-0.57745361328125,0.6253662109375,7.0625,3.0625,-0.75,0.1416015625,-0.919921875,0.47998046875
1,1597652880869234,-0.42919921875,0.30120849609375,-0.57818603515625,0.6251220703125,3.875,5.0625,-2.0,0.13134765625,-0.9267578125,0.45849609375
2,1597652880891240,-0.42596435546875,0.299560546875,-0.5802001953125,0.62628173828125,21.625,6.8125,-2.4375,0.126953125,-1.0126953125,0.5517578125
3,1597652880912229,-0.4183349609375,0.298828125,-0.58184814453125,0.6302490234375,45.125,18.0,14.0625,0.05712890625,-1.0390625,0.51416015625
4,1597652880933719,-0.41278076171875,0.29791259765625,-0.580810546875,0.63525390625,40.8125,-3.375,12.125,-0.13232421875,-1.04150390625,0.453125
5,1597652880951612,-0.4085693359375,0.2921142578125,-0.57861328125,0.642578125,54.125,-31.125,13.875,-0.09326171875,-0.93310546875,0.439453125
6,1597652880972622,-0.40203857421875,0.28216552734375,-0.58233642578125,0.6478271484375,70.8125,-7.125,5.625,0.330078125,-0.78515625,0.55615234375
7,1597652880993610,-0.39599609375,0.276611328125,-0.5859375,0.65069580078125,49.5,7.75,1.125,0.23486328125,-0.802734375,0.5732421875
8,1597652881011786,-0.39068603515625,0.27471923828125,-0.58612060546875,0.654541015625,33.5625,5.25,16.75,0.10302734375,-0.8212890625,0.56201171875
9,1597652881032612,-0.38861083984375,0.27471923828125,-0.5850830078125,0.65667724609375,10.0625,0.0,12.75,0.0625,-0.79248046875,0.53271484375
10,1597652881053609,-0.3887939453125,0.2752685546875,-0.58447265625,0.6568603515625,-1.5,1.0625,5.1875,0.1240234375,-0.87353515625,0.55029296875
11,1597652881072458,-0.38763427734375,0.2752685546875,-0.58428955078125,0.65771484375,5.0,3.8125,8.4375,0.140625,-0.8427734375,0.5673828125
12,1597652881093344,-0.3863525390625,0.27496337890625,-0.58428955078125,0.6585693359375,7.1875,1.5625,3.9375,0.08740234375,-0.84326171875,0.5654296875
13,1597652881113641,-0.3848876953125,0.27471923828125,-0.58441162109375,0.659423828125,7.3125,2.5625,4.0,0.08837890625,-0.859375,0.59423828125
14,1597652881131844,-0.38409423828125,0.2747802734375,-0.5841064453125,0.66015625,3.9375,1.5625,5.875,0.10107421875,-0.85302734375,0.56640625
15,1597652881152848,-0.38421630859375,0.275390625,-0.58380126953125,0.66009521484375,-2.125,1.9375,2.375,0.0927734375,-0.849609375,0.552734375
16,1597652881174091,-0.384521484375,0.27593994140625,-0.58331298828125,0.66015625,-3.1875,0.4375,3.625,0.09814453125,-0.8447265625,0.55126953125
17,1597652881191863,-0.38531494140625,0.27520751953125,-0.58349609375,0.6597900390625,-0.25,-3.3125,-2.75,0.12353515625,-0.82861328125,0.5380859375
18,1597652881213851,-0.38568115234375,0.2738037109375,-0.58416748046875,0.65960693359375,4.0625,-2.625,-3.625,0.146484375,-0.873046875,0.580078125
19,1597652881234156,-0.38421630859375,0.27459716796875,-0.58367919921875,0.6605224609375,5.25,3.0,5.0,0.02294921875,-0.88623046875,0.5712890625
20,1597652881251966,-0.3837890625,0.27630615234375,-0.58294677734375,0.66070556640625,-4.375,2.6875,3.25,0.005859375,-0.8427734375,0.55322265625
21,1597652881275957,-0.385498046875,0.27679443359375,-0.58270263671875,0.65972900390625,-9.5,-1.25,-2.0,0.1201171875,-0.8408203125,0.5380859375
22,1597652881293956,-0.38677978515625,0.2762451171875,-0.58294677734375,0.65899658203125,-4.0625,-1.6875,-2.625,0.162109375,-0.87890625,0.5751953125
23,1597652881311957,-0.3853759765625,0.27667236328125,-0.58270263671875,0.65985107421875,5.125,3.3125,5.5,0.06640625,-0.91552734375,0.60302734375
24,1597652881334333,-0.3834228515625,0.2781982421875,-0.58221435546875,0.6607666015625,3.1875,5.8125,5.625,-0.01708984375,-0.8583984375,0.5830078125
25,1597652881353543,-0.38421630859375,0.2789306640625,-0.58184814453125,0.66033935546875,-7.1875,0.375,0.75,0.08447265625,-0.8251953125,0.54296875
26,1597652881371366,-0.3863525390625,0.2779541015625,-0.58203125,0.65936279296875,-5.625,-5.5625,-4.5625,0.166015625,-0.798828125,0.5048828125
27,1597652881394365,-0.3875732421875,0.276611328125,-0.58282470703125,0.658447265625,-0.625,-1.75,-4.75,0.2001953125,-0.927734375,0.603515625
28,1597652881415363,-0.38409423828125,0.27783203125,-0.58203125,0.66070556640625,12.4375,5.5625,10.875,-0.041015625,-0.927734375,0.61865234375
29,1597652881430974,-0.3819580078125,0.279541015625,-0.58135986328125,0.66180419921875,3.125,5.0625,5.0625,-0.06591796875,-0.84521484375,0.56982421875
30,1597652881453975,-0.38336181640625,0.2801513671875,-0.581298828125,0.6607666015625,-10.125,0.8125,-1.375,0.11767578125,-0.81689453125,0.54443359375
31,1597652881474137,-0.3861083984375,0.279052734375,-0.5816650390625,0.6593017578125,-8.6875,-5.5625,-6.125,0.19775390625,-0.79052734375,0.5087890625
32,1597652881491701,-0.387939453125,0.2779541015625,-0.582275390625,0.65814208984375,-3.875,-2.625,-4.875,0.205078125,-0.90869140625,0.57421875
33,1597652881514001,-0.38555908203125,0.27874755859375,-0.581787109375,0.65972900390625,8.875,2.75,5.8125,-0.02880859375,-0.91748046875,0.6044921875
34,1597652881534068,-0.38360595703125,0.279296875,-0.58123779296875,0.66107177734375,7.3125,0.3125,3.4375,-0.04833984375,-0.85400390625,0.564453125
35,1597652881551770,-0.3846435546875,0.279296875,-0.58148193359375,0.6602783203125,-5.0625,-0.5625,-3.375,0.109375,-0.82177734375,0.541015625
36,1597652881574431,-0.38677978515625,0.27923583984375,-0.581787109375,0.65875244140625,-11.0,0.0,-3.5,0.18896484375,-0.84765625,0.55419921875
37,1597652881593477,-0.386962890625,0.2803955078125,-0.58123779296875,0.65863037109375,-3.75,2.3125,3.125,0.07568359375,-0.927734375,0.5712890625
38,1597652881611213,-0.3858642578125,0.281494140625,-0.58050537109375,0.65948486328125,1.1875,1.125,3.8125,-0.01904296875,-0.87158203125,0.56787109375
39,1597652881634477,-0.3861083984375,0.2808837890625,-0.580810546875,0.6593017578125,1.75,-1.6875,-2.5,0.0927734375,-0.84326171875,0.53857421875
40,1597652881655882,-0.38677978515625,0.2801513671875,-0.58123779296875,0.6588134765625,-0.3125,-0.5625,-1.75,0.15478515625,-0.8486328125,0.54833984375
41,1597652881671222,-0.3865966796875,0.2808837890625,-0.58123779296875,0.65863037109375,-2.5625,3.4375,1.25,0.07958984375,-0.8896484375,0.5810546875
42,1597652881694214,-0.38604736328125,0.2821044921875,-0.58087158203125,0.65875244140625,-2.75,3.1875,1.5625,0.01904296875,-0.8701171875,0.5712890625
43,1597652881713927,-0.38677978515625,0.282958984375,-0.580322265625,0.658447265625,-6.4375,-0.4375,0.5625,0.05908203125,-0.861328125,0.54443359375
44,1597652881731641,-0.38787841796875,0.28271484375,-0.580322265625,0.65789794921875,-3.625,-2.4375,-2.0,0.11376953125,-0.8525390625,0.52978515625
45,1597652881754050,-0.388427734375,0.2821044921875,-0.58056640625,0.6575927734375,0.75,-1.5,-2.0,0.1220703125,-0.8974609375,0.55712890625
46,1597652881781891,-0.386962890625,0.2821044921875,-0.58050537109375,0.6585693359375,7.25,1.125,2.9375,0.0322265625,-0.8779296875,0.57470703125
47,1597652881791642,-0.38665771484375,0.28228759765625,-0.58062744140625,0.6585693359375,-0.25,1.125,-0.8125,0.0576171875,-0.84716796875,0.5615234375
48,1597652881814638,-0.38763427734375,0.282958984375,-0.5806884765625,0.6575927734375,-8.25,2.0625,-2.0,0.10595703125,-0.8564453125,0.55322265625
49,1597652881835028,-0.388671875,0.28411865234375,-0.58013916015625,0.656982421875,-8.75,0.0625,0.25,0.068359375,-0.87158203125,0.53564453125
50,1597652881851824,-0.38946533203125,0.28424072265625,-0.5799560546875,0.65667724609375,-4.0,-1.875,-1.25,0.08349609375,-0.880859375,0.5537109375
51,1597652881873999,-0.3897705078125,0.28387451171875,-0.579833984375,0.65673828125,0.375,-3.0625,-1.125,0.07568359375,-0.86767578125,0.5439453125
52,1597652881894822,-0.390625,0.28326416015625,-0.57989501953125,0.65643310546875,-1.125,-4.125,-3.0625,0.09521484375,-0.86083984375,0.5361328125
53,1597652881910823,-0.39239501953125,0.283203125,-0.5794677734375,0.65576171875,-7.625,-5.375,-3.25,0.09228515625,-0.85693359375,0.5234375
54,1597652881934180,-0.3955078125,0.28369140625,-0.5782470703125,0.65478515625,-15.6875,-10.3125,-4.4375,0.05859375,-0.8564453125,0.4990234375
55,1597652881955175,-0.39971923828125,0.2825927734375,-0.5771484375,0.6536865234375,-14.75,-20.375,-11.4375,0.04296875,-0.826171875,0.4765625
56,1597652881971183,-0.4046630859375,0.27838134765625,-0.57763671875,0.6519775390625,-6.9375,-24.125,-18.375,0.22265625,-0.8720703125,0.521484375
57,1597652881993425,-0.405517578125,0.27496337890625,-0.57952880859375,0.65118408203125,7.125,-4.625,-9.625,0.28173828125,-0.953125,0.61865234375
58,1597652882015175,-0.4029541015625,0.2783203125,-0.57928466796875,0.651611328125,-4.1875,15.125,7.0625,-0.0087890625,-0.92041015625,0.61865234375
59,1597652882037145,-0.40460205078125,0.28485107421875,-0.57666015625,0.65008544921875,-37.5,5.375,1.3125,-0.16943359375,-0.8486328125,0.53271484375
60,1597652882052962,-0.411376953125,0.289306640625,-0.572998046875,0.6470947265625,-52.5625,-12.375,-2.4375,0.009765625,-0.86767578125,0.4970703125
61,1597652882076944,-0.4178466796875,0.2906494140625,-0.57086181640625,0.644287109375,-34.5625,-14.1875,-5.3125,0.173828125,-0.99072265625,0.47802734375
62,1597652882097942,-0.41900634765625,0.2880859375,-0.5718994140625,0.64373779296875,4.4375,-4.625,-4.375,0.27197265625,-0.9423828125,0.52392578125
63,1597652882113955,-0.4166259765625,0.2835693359375,-0.57403564453125,0.64532470703125,27.8125,-4.0,-4.25,0.18994140625,-0.8310546875,0.5224609375
64,1597652882134395,-0.41510009765625,0.27996826171875,-0.57586669921875,0.64630126953125,18.6875,-4.375,-6.875,0.15869140625,-0.7978515625,0.53076171875
65,1597652882159218,-0.415283203125,0.27825927734375,-0.57745361328125,0.64544677734375,3.1875,-1.1875,-11.125,0.14697265625,-0.8359375,0.5244140625
66,1597652882174328,-0.416259765625,0.27783203125,-0.5782470703125,0.64434814453125,-5.5625,-0.9375,-8.375,0.130859375,-0.84130859375,0.5224609375
67,1597652882195199,-0.4185791015625,0.279052734375,-0.5782470703125,0.64227294921875,-20.0625,-0.625,-8.5,0.11474609375,-0.875,0.54248046875
68,1597652882217190,-0.4217529296875,0.28204345703125,-0.57818603515625,0.63897705078125,-31.3125,4.5625,-9.5,0.11572265625,-0.890625,0.52685546875
69,1597652882233382,-0.4256591796875,0.28594970703125,-0.5780029296875,0.634765625,-38.5,7.375,-10.5625,0.1279296875,-0.89599609375,0.5
70,1597652882261551,-0.4302978515625,0.291015625,-0.57733154296875,0.62994384765625,-47.125,9.4375,-8.9375,0.13525390625,-0.91357421875,0.4873046875
71,1597652882276392,-0.4349365234375,0.2950439453125,-0.57666015625,0.62554931640625,-41.25,4.375,-10.6875,0.1201171875,-0.9052734375,0.443359375
72,1597652882293529,-0.4390869140625,0.29852294921875,-0.5758056640625,0.6217041015625,-35.0,3.625,-8.0625,0.14599609375,-0.97021484375,0.435546875
73,1597652882315804,-0.44146728515625,0.302001953125,-0.5758056640625,0.61834716796875,-27.125,10.5625,-5.875,0.1572265625,-0.97265625,0.44580078125
74,1597652882336791,-0.44189453125,0.30499267578125,-0.57647705078125,0.615966796875,-15.6875,14.3125,-5.0625,0.11083984375,-0.94482421875,0.43798828125
75,1597652882352967,-0.44207763671875,0.30841064453125,-0.57635498046875,0.6142578125,-15.3125,12.5,-0.9375,0.076171875,-0.93701171875,0.416015625
76,1597652882375938,-0.44366455078125,0.3123779296875,-0.57525634765625,0.61212158203125,-24.0,8.0,-0.5,0.06298828125,-0.9609375,0.40478515625
77,1597652882396661,-0.445556640625,0.31610107421875,-0.573974609375,0.61004638671875,-23.75,5.3125,-1.25,0.05908203125,-0.9931640625,0.3994140625
78,1597652882413650,-0.44677734375,0.31878662109375,-0.57305908203125,0.60858154296875,-17.125,4.4375,0.0,0.08642578125,-0.98828125,0.40771484375
79,1597652882435696,-0.44708251953125,0.32025146484375,-0.57275390625,0.60784912109375,-7.375,4.125,-0.0625,0.1025390625,-0.978515625,0.40966796875
80,1597652882457384,-0.447021484375,0.32061767578125,-0.572998046875,0.60748291015625,-0.375,2.5,-1.1875,0.126953125,-0.9658203125,0.39990234375
81,1597652882473709,-0.446533203125,0.320068359375,-0.57354736328125,0.607666015625,5.5,1.25,-1.0625,0.14111328125,-0.95166015625,0.4033203125
82,1597652882495712,-0.44573974609375,0.31903076171875,-0.57415771484375,0.608154296875,9.0,0.1875,-0.625,0.1455078125,-0.9375,0.41064453125
83,1597652882517223,-0.44500732421875,0.31817626953125,-0.57464599609375,0.60870361328125,6.5625,-0.1875,-0.0625,0.1357421875,-0.92626953125,0.423828125
84,1597652882533421,-0.4447021484375,0.31781005859375,-0.5748291015625,0.60894775390625,2.3125,-0.1875,-0.375,0.126953125,-0.93408203125,0.42578125
85,1597652882555212,-0.4447021484375,0.31781005859375,-0.5748291015625,0.60894775390625,0.375,0.25,0.125,0.12841796875,-0.94970703125,0.4287109375
86,1597652882577212,-0.44464111328125,0.31787109375,-0.5748291015625,0.60894775390625,-0.375,-0.625,0.1875,0.111328125,-0.95556640625,0.42529296875
87,1597652882593212,-0.444580078125,0.31787109375,-0.5745849609375,0.6092529296875,0.4375,-1.75,0.3125,0.10400390625,-0.95849609375,0.4228515625
88,1597652882615244,-0.44451904296875,0.31756591796875,-0.57452392578125,0.6094970703125,1.875,-1.6875,-0.3125,0.11669921875,-0.9501953125,0.41796875
89,1597652882636371,-0.44439697265625,0.3172607421875,-0.57464599609375,0.609619140625,1.375,-0.6875,-0.8125,0.12841796875,-0.9365234375,0.4287109375
90,1597652882653380,-0.44439697265625,0.3172607421875,-0.57464599609375,0.609619140625,0.0,0.4375,-0.5,0.1328125,-0.94384765625,0.423828125
91,1597652882676501,-0.44439697265625,0.3172607421875,-0.57464599609375,0.609619140625,-0.125,0.5,-1.0,0.134765625,-0.9423828125,0.416015625
92,1597652882697374,-0.4444580078125,0.31719970703125,-0.57470703125,0.609619140625,0.375,0.3125,-0.5625,0.1337890625,-0.93359375,0.41455078125
93,1597652882713974,-0.444580078125,0.31732177734375,-0.57452392578125,0.60955810546875,-1.0625,-0.5625,0.0,0.1240234375,-0.94580078125,0.41552734375
94,1597652882736175,-0.44482421875,0.3173828125,-0.57452392578125,0.609375,-1.25,-0.375,-0.875,0.130859375,-0.95361328125,0.419921875
95,1597652882757173,-0.44464111328125,0.3172607421875,-0.57464599609375,0.60943603515625,1.4375,0.25,-0.6875,0.12255859375,-0.94384765625,0.42138671875
96,1597652882773285,-0.4443359375,0.31707763671875,-0.57476806640625,0.609619140625,1.875,-0.125,-0.6875,0.1142578125,-0.9501953125,0.4296875
97,1597652882796177,-0.44403076171875,0.31683349609375,-0.574951171875,0.60980224609375,2.125,-0.0625,-0.6875,0.11767578125,-0.94091796875,0.42431640625
98,1597652882817369,-0.44403076171875,0.31689453125,-0.574951171875,0.60980224609375,0.9375,-0.4375,-0.9375,0.1240234375,-0.9384765625,0.419921875
99,1597652882833327,-0.4442138671875,0.3167724609375,-0.57489013671875,0.60980224609375,-0.625,-1.0625,-0.5625,0.12744140625,-0.9365234375,0.4169921875
