index,timestamp,orientation_x,orientation_y,orientation_z,orientation_w,gyroscope_x,gyroscope_y,gyroscope_z,acceleration_x,acceleration_y,acceleration_z
0,1597982782113036,-0.191650390625,0.1036376953125,-0.44696044921875,0.86761474609375,-3.4375,-0.5,-0.125,-0.00830078125,-0.43505859375,0.92236328125
1,1597982782134042,-0.1923828125,0.10394287109375,-0.44696044921875,0.867431640625,-4.125,0.0,-0.625,-0.00634765625,-0.44580078125,0.92333984375
2,1597982782156110,-0.19293212890625,0.104248046875,-0.44708251953125,0.8671875,-2.75,0.0625,-1.1875,-0.01220703125,-0.44921875,0.91748046875
3,1597982782173122,-0.19329833984375,0.1043701171875,-0.44708251953125,0.8670654296875,-2.1875,-0.25,-0.5625,-0.00732421875,-0.4423828125,0.9248046875
4,1597982782194123,-0.19354248046875,0.10443115234375,-0.44708251953125,0.86700439453125,-1.125,-0.375,-0.125,-0.01025390625,-0.443359375,0.92578125
5,1597982782216109,-0.193603515625,0.10443115234375,-0.44708251953125,0.86700439453125,-1.0625,-0.3125,-0.25,-0.01123046875,-0.43359375,0.9287109375
6,1597982782233121,-0.19390869140625,0.10455322265625,-0.44708251953125,0.866943359375,-1.8125,-0.4375,-0.25,-0.01318359375,-0.43994140625,0.9248046875
7,1597982782254108,-0.1943359375,0.10467529296875,-0.44708251953125,0.8668212890625,-2.8125,-0.625,-0.3125,-0.009765625,-0.43896484375,0.9248046875
8,1597982782276202,-0.19488525390625,0.10479736328125,-0.447021484375,0.86669921875,-3.1875,-0.8125,-0.125,-0.00537109375,-0.443359375,0.9208984375
9,1597982782292194,-0.1954345703125,0.10479736328125,-0.44683837890625,0.86663818359375,-2.5625,-1.0625,0.25,-0.005859375,-0.4501953125,0.9267578125
10,1597982782313197,-0.1954345703125,0.10455322265625,-0.44671630859375,0.86676025390625,1.4375,-2.0,0.3125,-0.015625,-0.45654296875,0.9208984375
11,1597982782336285,-0.19500732421875,0.1038818359375,-0.44677734375,0.866943359375,4.5625,-2.9375,-0.5625,-0.01171875,-0.4541015625,0.93359375
12,1597982782352290,-0.19427490234375,0.1026611328125,-0.44708251953125,0.8670654296875,7.0,-4.125,-2.125,-0.01123046875,-0.443359375,0.9404296875
13,1597982782373292,-0.193359375,0.10076904296875,-0.44744873046875,0.8673095703125,10.375,-6.9375,-3.0625,-0.001953125,-0.44873046875,0.943359375
14,1597982782396293,-0.19146728515625,0.09930419921875,-0.448486328125,0.86737060546875,13.0,-1.625,-5.3125,-0.0029296875,-0.41845703125,0.91943359375
15,1597982782412286,-0.1904296875,0.09906005859375,-0.44970703125,0.86700439453125,-0.0625,1.5,-7.5,-0.02685546875,-0.33935546875,0.94287109375
16,1597982782433294,-0.19525146484375,0.10101318359375,-0.45062255859375,0.865234375,-33.6875,-1.9375,-10.375,-0.01953125,-0.37548828125,0.89599609375
17,1597982782456370,-0.2027587890625,0.10302734375,-0.4508056640625,0.8631591796875,-44.1875,-6.5,-7.6875,0.033203125,-0.47412109375,0.94091796875
18,1597982782472361,-0.20709228515625,0.10443115234375,-0.45068359375,0.86199951171875,-22.625,-2.6875,-3.0625,0.01806640625,-0.5283203125,0.92529296875
19,1597982782493362,-0.20831298828125,0.1048583984375,-0.45062255859375,0.8616943359375,-4.4375,-2.125,-1.3125,-0.00927734375,-0.51953125,0.91943359375
20,1597982782516359,-0.20867919921875,0.1048583984375,-0.450439453125,0.8616943359375,-1.5,-1.8125,0.5,-0.00244140625,-0.4560546875,0.87939453125
21,1597982782534359,-0.2103271484375,0.1046142578125,-0.450439453125,0.861328125,-8.0,-4.0,-1.5625,0.0263671875,-0.4580078125,0.892578125
22,1597982782553364,-0.21160888671875,0.104736328125,-0.4503173828125,0.861083984375,-6.6875,-1.4375,-0.25,0.0322265625,-0.4755859375,0.90576171875
23,1597982782576360,-0.2119140625,0.10498046875,-0.4501953125,0.86102294921875,-1.875,-0.4375,0.25,-0.001953125,-0.47802734375,0.916015625
24,1597982782594366,-0.2120361328125,0.10504150390625,-0.45037841796875,0.86090087890625,-2.125,-0.1875,-1.5625,0.00146484375,-0.4501953125,0.90087890625
25,1597982782613367,-0.21356201171875,0.10552978515625,-0.45062255859375,0.8603515625,-10.1875,-0.75,-2.875,0.013671875,-0.4501953125,0.89013671875
26,1597982782636368,-0.2159423828125,0.1064453125,-0.4505615234375,0.85968017578125,-14.9375,-0.8125,-1.3125,0.02001953125,-0.4794921875,0.90234375
27,1597982782654368,-0.2177734375,0.107421875,-0.45050048828125,0.85906982421875,-10.4375,0.0625,-1.4375,0.01123046875,-0.51318359375,0.90380859375
28,1597982782673367,-0.2181396484375,0.107666015625,-0.4505615234375,0.85894775390625,-1.25,0.3125,-0.8125,0.0048828125,-0.50439453125,0.900390625
29,1597982782696358,-0.21759033203125,0.10736083984375,-0.45074462890625,0.8590087890625,2.8125,-0.4375,-0.9375,0.00439453125,-0.47314453125,0.9072265625
30,1597982782714368,-0.2176513671875,0.10723876953125,-0.450927734375,0.85894775390625,-0.75,-0.9375,-1.375,0.00830078125,-0.46337890625,0.8984375
31,1597982782733367,-0.218505859375,0.107421875,-0.450927734375,0.85870361328125,-5.4375,-1.1875,-1.0625,0.01171875,-0.478515625,0.900390625
32,1597982782756367,-0.21978759765625,0.10772705078125,-0.4508056640625,0.8583984375,-6.375,-1.875,-0.5,0.0126953125,-0.50146484375,0.89599609375
33,1597982782774367,-0.22021484375,0.1075439453125,-0.45074462890625,0.85833740234375,-1.25,-1.25,0.0,0.02490234375,-0.50146484375,0.9091796875
34,1597982782793362,-0.2197265625,0.107177734375,-0.4508056640625,0.85845947265625,2.9375,-0.25,0.25,0.02197265625,-0.4814453125,0.90966796875
35,1597982782816367,-0.2193603515625,0.10699462890625,-0.45074462890625,0.858642578125,2.125,-0.1875,0.3125,0.00927734375,-0.47265625,0.89306640625
36,1597982782834368,-0.2196044921875,0.1070556640625,-0.45062255859375,0.85858154296875,-2.3125,-1.125,0.125,0.0078125,-0.47265625,0.89892578125
37,1597982782853367,-0.220458984375,0.10723876953125,-0.45050048828125,0.85845947265625,-4.5625,-1.4375,0.0,0.0107421875,-0.4892578125,0.89697265625
38,1597982782876444,-0.2208251953125,0.10723876953125,-0.4503173828125,0.85845947265625,-1.625,-1.1875,0.5625,0.0185546875,-0.49951171875,0.90625
39,1597982782894454,-0.2205810546875,0.10699462890625,-0.4503173828125,0.85858154296875,1.8125,-0.75,0.1875,0.01318359375,-0.484375,0.90087890625
40,1597982782913448,-0.2205810546875,0.10699462890625,-0.4503173828125,0.85858154296875,0.6875,-0.625,0.125,0.01171875,-0.47412109375,0.89599609375
41,1597982782936530,-0.22100830078125,0.10711669921875,-0.45013427734375,0.8585205078125,-2.75,-0.9375,0.375,0.0107421875,-0.4833984375,0.8994140625
42,1597982782954524,-0.22161865234375,0.1072998046875,-0.449951171875,0.85845947265625,-3.625,-1.0,0.5,0.01171875,-0.49365234375,0.89990234375
43,1597982782973530,-0.22210693359375,0.1072998046875,-0.4498291015625,0.8583984375,-2.0,-1.125,0.1875,0.02001953125,-0.4970703125,0.8974609375
44,1597982782996540,-0.22198486328125,0.10711669921875,-0.44976806640625,0.85845947265625,1.375,-0.625,0.3125,0.01953125,-0.49169921875,0.8974609375
45,1597982783014531,-0.2216796875,0.10687255859375,-0.44970703125,0.85858154296875,2.25,-0.5,0.4375,0.01904296875,-0.48876953125,0.89892578125
46,1597982783033530,-0.22119140625,0.10662841796875,-0.44964599609375,0.8587646484375,2.625,-0.4375,0.8125,0.0126953125,-0.4814453125,0.8994140625
47,1597982783056532,-0.22119140625,0.10662841796875,-0.44964599609375,0.8587646484375,-0.0625,-0.5,0.625,0.0087890625,-0.4775390625,0.89501953125
48,1597982783074521,-0.2215576171875,0.10675048828125,-0.4495849609375,0.85870361328125,-1.75,-0.4375,-0.0625,0.01611328125,-0.4970703125,0.8994140625
49,1597982783093530,-0.2215576171875,0.10675048828125,-0.4495849609375,0.85870361328125,0.1875,0.0625,0.4375,0.0166015625,-0.49658203125,0.90380859375
50,1597982783116611,-0.2213134765625,0.10675048828125,-0.44970703125,0.85870361328125,1.4375,0.75,-0.25,0.01708984375,-0.48681640625,0.89794921875
51,1597982783134625,-0.2210693359375,0.106689453125,-0.4498291015625,0.85870361328125,1.125,0.375,-0.5625,0.01318359375,-0.482421875,0.89697265625
52,1597982783155625,-0.2210693359375,0.106689453125,-0.4498291015625,0.85870361328125,-0.5,-0.25,-0.5,0.01611328125,-0.49072265625,0.90185546875
53,1597982783175613,-0.2210693359375,0.10662841796875,-0.4498291015625,0.85870361328125,0.0,-0.375,0.0625,0.02099609375,-0.4833984375,0.90673828125
54,1597982783193620,-0.2210693359375,0.10662841796875,-0.4498291015625,0.85870361328125,0.0625,-0.1875,-0.375,0.017578125,-0.48046875,0.90478515625
55,1597982783215613,-0.2210693359375,0.10662841796875,-0.4498291015625,0.85870361328125,-0.3125,-0.4375,-0.125,0.013671875,-0.4892578125,0.89892578125
56,1597982783236618,-0.2210693359375,0.10662841796875,-0.4498291015625,0.85870361328125,-1.0,-0.5,0.0,0.01220703125,-0.48876953125,0.89990234375
57,1597982783254626,-0.2210693359375,0.106689453125,-0.4498291015625,0.85870361328125,-1.0,-0.6875,0.1875,0.0146484375,-0.49169921875,0.89697265625
58,1597982783274619,-0.2210693359375,0.106689453125,-0.4498291015625,0.85870361328125,0.75,-0.5,0.4375,0.017578125,-0.4892578125,0.8984375
59,1597982783296611,-0.22076416015625,0.1064453125,-0.4498291015625,0.85882568359375,2.25,-0.5,0.125,0.015625,-0.48681640625,0.90234375
60,1597982783313610,-0.22076416015625,0.10638427734375,-0.4498291015625,0.85882568359375,0.75,-0.5,-0.4375,0.017578125,-0.4794921875,0.8974609375
61,1597982783335621,-0.22125244140625,0.1065673828125,-0.44976806640625,0.85870361328125,-2.75,-0.625,-0.3125,0.01318359375,-0.4892578125,0.89599609375
62,1597982783356620,-0.2218017578125,0.1065673828125,-0.4495849609375,0.858642578125,-2.25,-1.4375,0.4375,0.01904296875,-0.50048828125,0.9013671875
63,1597982783374624,-0.2218017578125,0.1064453125,-0.44940185546875,0.8587646484375,0.625,-1.1875,0.9375,0.01513671875,-0.4951171875,0.89697265625
64,1597982783395625,-0.22125244140625,0.10595703125,-0.449462890625,0.85894775390625,4.125,-0.375,0.3125,0.029296875,-0.48583984375,0.90478515625
65,1597982783416620,-0.22076416015625,0.10565185546875,-0.449462890625,0.859130859375,3.0,-0.1875,0.3125,0.0185546875,-0.4736328125,0.8935546875
66,1597982783434626,-0.220703125,0.10565185546875,-0.449462890625,0.859130859375,-0.4375,-0.25,0.375,0.00927734375,-0.48046875,0.89599609375
67,1597982783455624,-0.22100830078125,0.10577392578125,-0.44927978515625,0.859130859375,-1.5,-0.5625,0.4375,0.01025390625,-0.49072265625,0.89794921875
68,1597982783475613,-0.22100830078125,0.10577392578125,-0.44927978515625,0.859130859375,0.0,-0.25,0.1875,0.0244140625,-0.49462890625,0.89794921875
69,1597982783494624,-0.22076416015625,0.10565185546875,-0.44927978515625,0.85919189453125,1.6875,0.0625,0.5,0.01806640625,-0.48876953125,0.9013671875
70,1597982783516623,-0.22052001953125,0.1055908203125,-0.44927978515625,0.8592529296875,1.25,0.25,-0.0625,0.015625,-0.48046875,0.90087890625
71,1597982783536667,-0.22052001953125,0.1055908203125,-0.44927978515625,0.8592529296875,-0.0625,-0.0625,0.1875,0.0166015625,-0.4873046875,0.89892578125
72,1597982783553674,-0.2205810546875,0.1055908203125,-0.44927978515625,0.8592529296875,-0.75,0.125,-0.125,0.021484375,-0.49267578125,0.896484375
73,1597982783576665,-0.22052001953125,0.1055908203125,-0.4493408203125,0.8592529296875,0.0,0.125,0.125,0.017578125,-0.4833984375,0.90673828125
74,1597982783595670,-0.22052001953125,0.1055908203125,-0.4493408203125,0.8592529296875,-0.375,0.625,-0.875,0.01611328125,-0.48046875,0.8984375
75,1597982783613675,-0.22076416015625,0.105712890625,-0.44927978515625,0.85919189453125,-1.125,-0.0625,0.125,0.01513671875,-0.48974609375,0.8955078125
76,1597982783636668,-0.22076416015625,0.105712890625,-0.44927978515625,0.85919189453125,0.6875,0.375,0.125,0.017578125,-0.4873046875,0.8974609375
77,1597982783656667,-0.2205810546875,0.10577392578125,-0.44921875,0.8592529296875,1.1875,0.375,0.0625,0.01025390625,-0.48974609375,0.900390625
78,1597982783674665,-0.22021484375,0.105712890625,-0.44927978515625,0.85931396484375,1.1875,0.4375,0.0625,0.01416015625,-0.47314453125,0.89892578125
79,1597982783696668,-0.22021484375,0.105712890625,-0.44927978515625,0.85931396484375,-0.6875,0.25,-0.0625,0.01611328125,-0.48193359375,0.9033203125
80,1597982783715666,-0.22021484375,0.105712890625,-0.44927978515625,0.85931396484375,-0.4375,0.0625,0.1875,0.01513671875,-0.48681640625,0.90380859375
81,1597982783734668,-0.22021484375,0.105712890625,-0.44927978515625,0.85931396484375,0.75,0.125,-0.25,0.01611328125,-0.48046875,0.9072265625
82,1597982783756668,-0.22021484375,0.105712890625,-0.44927978515625,0.85931396484375,0.625,0.1875,0.0,0.01953125,-0.4873046875,0.90087890625
83,1597982783775665,-0.219970703125,0.10565185546875,-0.4493408203125,0.859375,1.0625,0.6875,0.0,0.0185546875,-0.4794921875,0.90234375
84,1597982783793674,-0.21990966796875,0.10565185546875,-0.4493408203125,0.859375,0.1875,0.125,0.0,0.0087890625,-0.4794921875,0.8984375
85,1597982783816668,-0.21990966796875,0.10565185546875,-0.4493408203125,0.859375,0.1875,0.25,0.125,0.01904296875,-0.48046875,0.90625
86,1597982783836669,-0.21990966796875,0.10565185546875,-0.4493408203125,0.859375,0.125,0.1875,0.0625,0.01416015625,-0.48779296875,0.896484375
87,1597982783854668,-0.21990966796875,0.105712890625,-0.4493408203125,0.859375,0.375,0.1875,0.0,0.013671875,-0.48779296875,0.90185546875
88,1597982783876666,-0.2197265625,0.1055908203125,-0.44940185546875,0.85943603515625,1.125,0.4375,-0.0625,0.01904296875,-0.48046875,0.900390625
89,1597982783896667,-0.2197265625,0.1055908203125,-0.44940185546875,0.85943603515625,0.25,0.3125,0.0625,0.01611328125,-0.482421875,0.90234375
90,1597982783914665,-0.2197265625,0.1055908203125,-0.44940185546875,0.85943603515625,0.25,0.3125,0.0,0.01416015625,-0.4814453125,0.90283203125
91,1597982783936668,-0.2197265625,0.1055908203125,-0.44940185546875,0.85943603515625,0.1875,0.3125,0.0,0.01611328125,-0.4833984375,0.90234375
92,1597982783955673,-0.2197265625,0.1055908203125,-0.44940185546875,0.85943603515625,0.75,0.5625,0.25,0.01513671875,-0.48486328125,0.8935546875
93,1597982783974668,-0.21954345703125,0.10565185546875,-0.4493408203125,0.8594970703125,1.125,0.3125,0.3125,0.01025390625,-0.48681640625,0.8984375
94,1597982783996665,-0.21929931640625,0.10565185546875,-0.4493408203125,0.85955810546875,1.75,0.375,0.25,0.013671875,-0.49072265625,0.9013671875
95,1597982784016677,-0.218994140625,0.1055908203125,-0.44921875,0.85968017578125,2.125,0.125,0.875,0.01171875,-0.48779296875,0.89697265625
96,1597982784034668,-0.21856689453125,0.10540771484375,-0.4490966796875,0.85986328125,2.5625,-0.5625,0.9375,0.00927734375,-0.48046875,0.90478515625
97,1597982784056668,-0.21807861328125,0.10443115234375,-0.44879150390625,0.86029052734375,4.25,-4.75,1.4375,0.0078125,-0.46533203125,0.9013671875
98,1597982784077674,-0.21844482421875,0.10357666015625,-0.448486328125,0.8604736328125,0.5625,-5.125,0.6875,0.02490234375,-0.4736328125,0.89404296875
99,1597982784093674,-0.218994140625,0.10333251953125,-0.4481201171875,0.86053466796875,-1.625,-2.5625,1.875,0.03125,-0.4931640625,0.90087890625
100,1597982784116668,-0.21905517578125,0.1033935546875,-0.44781494140625,0.86065673828125,0.4375,0.0625,2.0,0.02392578125,-0.48681640625,0.8876953125
