index,timestamp,orientation_x,orientation_y,orientation_z,orientation_w,gyroscope_x,gyroscope_y,gyroscope_z,acceleration_x,acceleration_y,acceleration_z
0,1597982824143254,-0.22198486328125,0.09930419921875,-0.41925048828125,0.87469482421875,-15.8125,-5.75,2.3125,0.01904296875,-0.46484375,0.90478515625
1,1597982824164259,-0.22479248046875,0.10009765625,-0.41888427734375,0.8740234375,-16.875,-2.5625,-0.3125,0.017578125,-0.4921875,0.90087890625
2,1597982824182261,-0.227294921875,0.10125732421875,-0.41845703125,0.87347412109375,-15.375,-1.6875,0.25,-0.00830078125,-0.51318359375,0.90771484375
3,1597982824204253,-0.22894287109375,0.101806640625,-0.41802978515625,0.8731689453125,-8.875,-3.3125,0.1875,-0.0087890625,-0.52294921875,0.8994140625
4,1597982824219251,-0.230224609375,0.101318359375,-0.4176025390625,0.87310791015625,-5.25,-6.625,-0.0625,-0.00048828125,-0.4931640625,0.87890625
5,1597982824242260,-0.23199462890625,0.10076904296875,-0.41729736328125,0.87286376953125,-8.5625,-6.6875,-0.25,0.0302734375,-0.482421875,0.8720703125
6,1597982824264263,-0.23419189453125,0.10076904296875,-0.41717529296875,0.872314453125,-11.125,-3.75,-1.25,0.04150390625,-0.509765625,0.88330078125
7,1597982824284261,-0.235595703125,0.10113525390625,-0.41693115234375,0.87200927734375,-7.125,-1.625,0.3125,0.02392578125,-0.53466796875,0.89599609375
8,1597982824301254,-0.235595703125,0.1009521484375,-0.4166259765625,0.8721923828125,2.125,-2.0,1.0,0.0078125,-0.54443359375,0.90087890625
9,1597982824323263,-0.2344970703125,0.10009765625,-0.4166259765625,0.87255859375,8.1875,-2.75,0.0625,0.00732421875,-0.50341796875,0.88525390625
10,1597982824344253,-0.23394775390625,0.09912109375,-0.41656494140625,0.87286376953125,3.75,-4.5625,-0.3125,0.01220703125,-0.4755859375,0.888671875
11,1597982824361254,-0.234619140625,0.0985107421875,-0.41632080078125,0.87286376953125,-3.6875,-4.25,0.125,0.037109375,-0.47412109375,0.88671875
12,1597982824383261,-0.23614501953125,0.0986328125,-0.416259765625,0.8724365234375,-9.3125,-2.1875,-0.875,0.03466796875,-0.49072265625,0.884765625
13,1597982824404253,-0.23785400390625,0.09912109375,-0.416015625,0.8720703125,-10.0,-1.625,-0.0625,0.02783203125,-0.5224609375,0.89453125
14,1597982824421254,-0.23870849609375,0.09930419921875,-0.41583251953125,0.87188720703125,-3.9375,-1.125,0.375,0.0302734375,-0.533203125,0.89453125
15,1597982824443251,-0.23876953125,0.09930419921875,-0.41583251953125,0.87188720703125,0.5,-0.625,0.375,0.0234375,-0.521484375,0.87841796875
16,1597982824464272,-0.23870849609375,0.09906005859375,-0.41583251953125,0.8719482421875,1.1875,-1.0,-0.25,0.02587890625,-0.5126953125,0.87939453125
17,1597982824481254,-0.2386474609375,0.098876953125,-0.415771484375,0.87200927734375,0.5625,-1.25,0.0625,0.02392578125,-0.50732421875,0.884765625
18,1597982824503266,-0.23858642578125,0.09869384765625,-0.415771484375,0.8720703125,0.625,-1.1875,0.0,0.02392578125,-0.50439453125,0.8837890625
19,1597982824518253,-0.23858642578125,0.09844970703125,-0.4156494140625,0.87213134765625,0.1875,-1.1875,0.3125,0.0283203125,-0.50732421875,0.8896484375
20,1597982824541251,-0.23858642578125,0.09844970703125,-0.4156494140625,0.87213134765625,0.25,-0.75,-0.0625,0.02392578125,-0.5126953125,0.884765625
21,1597982824563252,-0.23858642578125,0.0985107421875,-0.4156494140625,0.87213134765625,0.0,-1.0,0.25,0.02294921875,-0.5146484375,0.88623046875
22,1597982824578258,-0.2386474609375,0.0985107421875,-0.4156494140625,0.87213134765625,0.375,-0.75,-0.0625,0.02978515625,-0.51513671875,0.88232421875
23,1597982824601254,-0.238525390625,0.0982666015625,-0.41571044921875,0.87213134765625,1.3125,-0.5,-0.25,0.033203125,-0.51220703125,0.8857421875
24,1597982824623261,-0.23828125,0.097900390625,-0.41552734375,0.872314453125,2.0625,-1.25,1.125,0.03173828125,-0.5087890625,0.89599609375
25,1597982824638260,-0.23779296875,0.09759521484375,-0.41558837890625,0.8724365234375,2.375,-0.3125,0.0,0.0302734375,-0.49853515625,0.890625
26,1597982824661254,-0.23779296875,0.09759521484375,-0.41558837890625,0.8724365234375,-0.625,-0.375,-0.125,0.02978515625,-0.49267578125,0.8876953125
27,1597982824683264,-0.23828125,0.097900390625,-0.41552734375,0.872314453125,-3.1875,0.375,-0.0625,0.02685546875,-0.51416015625,0.88818359375
28,1597982824704259,-0.2386474609375,0.09808349609375,-0.41552734375,0.8721923828125,-2.125,-0.0625,-0.3125,0.02392578125,-0.52001953125,0.888671875
29,1597982824721254,-0.2386474609375,0.09808349609375,-0.41552734375,0.8721923828125,0.25,0.0,-0.125,0.0263671875,-0.51513671875,0.8916015625
30,1597982824743261,-0.238525390625,0.097900390625,-0.41552734375,0.87225341796875,1.1875,-0.5,0.125,0.03125,-0.51025390625,0.88671875
31,1597982824764259,-0.238525390625,0.097900390625,-0.41552734375,0.87225341796875,0.3125,-0.625,0.25,0.02880859375,-0.5068359375,0.88525390625
32,1597982824781254,-0.23883056640625,0.09796142578125,-0.4154052734375,0.87225341796875,-1.5625,-0.5,0.6875,0.02978515625,-0.5068359375,0.88330078125
33,1597982824803259,-0.23907470703125,0.0980224609375,-0.4151611328125,0.87225341796875,-1.5625,-0.8125,1.0,0.02587890625,-0.5146484375,0.8876953125
34,1597982824824259,-0.2391357421875,0.0980224609375,-0.4151611328125,0.87225341796875,0.75,-0.5,0.5625,0.0283203125,-0.52001953125,0.88623046875
35,1597982824841254,-0.23876953125,0.097900390625,-0.4151611328125,0.87237548828125,1.625,0.5625,0.3125,0.0341796875,-0.50244140625,0.88671875
36,1597982824863251,-0.23876953125,0.097900390625,-0.4151611328125,0.87237548828125,0.125,0.875,0.1875,0.03271484375,-0.50048828125,0.89013671875
37,1597982824884260,-0.23876953125,0.09814453125,-0.415283203125,0.87225341796875,-0.75,1.3125,-0.4375,0.02734375,-0.509765625,0.88916015625
38,1597982824901254,-0.23876953125,0.09814453125,-0.415283203125,0.872314453125,-0.75,0.875,-0.375,0.021484375,-0.509765625,0.8857421875
39,1597982824923265,-0.23876953125,0.09814453125,-0.415283203125,0.872314453125,-0.8125,0.8125,-0.625,0.0244140625,-0.50927734375,0.89208984375
40,1597982824944251,-0.23876953125,0.09814453125,-0.415283203125,0.872314453125,-0.6875,0.6875,-0.25,0.01806640625,-0.51220703125,0.8857421875
41,1597982824961254,-0.23876953125,0.09814453125,-0.415283203125,0.872314453125,0.875,0.3125,-0.0625,0.0263671875,-0.513671875,0.89111328125
42,1597982824983253,-0.23870849609375,0.09820556640625,-0.415283203125,0.872314453125,0.75,0.0625,-0.0625,0.02294921875,-0.50830078125,0.88525390625
43,1597982825004259,-0.23870849609375,0.09814453125,-0.415283203125,0.872314453125,0.25,-0.375,-0.25,0.03173828125,-0.49951171875,0.89599609375
44,1597982825021254,-0.23895263671875,0.09814453125,-0.41534423828125,0.8721923828125,-1.5,0.0625,-0.375,0.0341796875,-0.5048828125,0.88330078125
45,1597982825043251,-0.2388916015625,0.09814453125,-0.41534423828125,0.8721923828125,-0.5,-0.25,0.0,0.0263671875,-0.509765625,0.89013671875
46,1597982825064256,-0.23895263671875,0.09820556640625,-0.41534423828125,0.8721923828125,0.125,0.5,0.0625,0.02294921875,-0.51171875,0.87890625
47,1597982825081254,-0.23895263671875,0.09820556640625,-0.41534423828125,0.8721923828125,-0.3125,0.0,-0.0625,0.02294921875,-0.51416015625,0.89013671875
48,1597982825103262,-0.23895263671875,0.09820556640625,-0.41534423828125,0.8721923828125,0.9375,0.375,-0.125,0.0263671875,-0.51318359375,0.8837890625
49,1597982825124259,-0.23876953125,0.09808349609375,-0.41546630859375,0.8721923828125,1.75,0.5625,-0.3125,0.03662109375,-0.51611328125,0.884765625
50,1597982825141254,-0.23828125,0.09796142578125,-0.41571044921875,0.87225341796875,2.875,1.125,-0.8125,0.03369140625,-0.513671875,0.890625
51,1597982825163259,-0.23779296875,0.09796142578125,-0.415771484375,0.872314453125,2.625,0.75,-0.25,0.0205078125,-0.51025390625,0.890625
52,1597982825186254,-0.23736572265625,0.09796142578125,-0.416015625,0.872314453125,2.3125,1.375,-1.125,0.0234375,-0.50439453125,0.88232421875
53,1597982825201266,-0.2373046875,0.0980224609375,-0.416015625,0.872314453125,-1.0,0.4375,-0.875,0.0166015625,-0.50634765625,0.8818359375
54,1597982825223266,-0.237548828125,0.0980224609375,-0.41607666015625,0.87225341796875,-1.125,-0.1875,-0.25,0.0322265625,-0.5087890625,0.89306640625
55,1597982825246254,-0.23736572265625,0.0980224609375,-0.4161376953125,0.87225341796875,1.25,0.5625,-0.375,0.02734375,-0.513671875,0.88525390625
56,1597982825261256,-0.23699951171875,0.09783935546875,-0.4161376953125,0.87237548828125,1.8125,0.0,0.125,0.0263671875,-0.50146484375,0.89013671875
57,1597982825283258,-0.23699951171875,0.09783935546875,-0.4161376953125,0.87237548828125,0.5625,0.25,-0.25,0.01953125,-0.501953125,0.88818359375
58,1597982825306254,-0.23699951171875,0.09783935546875,-0.4161376953125,0.87237548828125,-0.4375,-0.125,-0.0625,0.0263671875,-0.5068359375,0.88330078125
59,1597982825320259,-0.23699951171875,0.09783935546875,-0.4161376953125,0.87237548828125,-0.0625,0.1875,-0.0625,0.02978515625,-0.509765625,0.890625
60,1597982825343333,-0.23699951171875,0.09783935546875,-0.4161376953125,0.87237548828125,0.25,0.5,-0.125,0.0263671875,-0.51220703125,0.88818359375
61,1597982825366334,-0.23675537109375,0.0977783203125,-0.41619873046875,0.8724365234375,2.125,-0.0625,0.0,0.0263671875,-0.515625,0.890625
62,1597982825380333,-0.23614501953125,0.09747314453125,-0.416259765625,0.87261962890625,4.3125,-0.0625,-0.125,0.0263671875,-0.5107421875,0.890625
63,1597982825403333,-0.23541259765625,0.09716796875,-0.4163818359375,0.87274169921875,4.5625,0.125,-0.5,0.0205078125,-0.50390625,0.89013671875
64,1597982825426334,-0.23480224609375,0.096923828125,-0.41644287109375,0.8729248046875,3.75,-0.1875,0.0,0.01953125,-0.49609375,0.890625
65,1597982825440333,-0.2344970703125,0.0965576171875,-0.4163818359375,0.87310791015625,1.875,-1.5,0.0625,0.0234375,-0.49365234375,0.8916015625
66,1597982825463333,-0.2344970703125,0.0965576171875,-0.4163818359375,0.87310791015625,0.875,-1.0,-0.0625,0.03125,-0.494140625,0.89111328125
67,1597982825486334,-0.2344970703125,0.0965576171875,-0.4163818359375,0.87310791015625,0.25,-0.4375,-0.0625,0.0283203125,-0.494140625,0.89306640625
68,1597982825500331,-0.2344970703125,0.0965576171875,-0.4163818359375,0.87310791015625,0.1875,0.0,0.125,0.02783203125,-0.50146484375,0.88818359375
69,1597982825523337,-0.2344970703125,0.0965576171875,-0.4163818359375,0.87310791015625,0.0,0.375,-0.5,0.02099609375,-0.5087890625,0.8896484375
70,1597982825546334,-0.2344970703125,0.0965576171875,-0.4163818359375,0.87310791015625,0.8125,0.0,0.0,0.025390625,-0.5009765625,0.8876953125
71,1597982825560331,-0.2344970703125,0.0965576171875,-0.4163818359375,0.87310791015625,-0.5,0.125,-0.4375,0.0244140625,-0.49462890625,0.8916015625
72,1597982825583341,-0.23468017578125,0.0965576171875,-0.41650390625,0.87298583984375,-1.125,0.0625,-0.75,0.03369140625,-0.5,0.89306640625
73,1597982825606334,-0.23480224609375,0.0966796875,-0.4166259765625,0.87286376953125,-1.4375,0.625,-0.875,0.02734375,-0.49755859375,0.88818359375
74,1597982825620334,-0.2349853515625,0.09686279296875,-0.41668701171875,0.872802734375,-1.375,0.25,-0.4375,0.02490234375,-0.50634765625,0.89306640625
75,1597982825643340,-0.2349853515625,0.09686279296875,-0.41668701171875,0.872802734375,0.0,0.0625,-0.375,0.02490234375,-0.50439453125,0.8916015625
76,1597982825666334,-0.2349853515625,0.09686279296875,-0.41668701171875,0.872802734375,0.8125,0.0,-0.4375,0.0263671875,-0.5048828125,0.8935546875
77,1597982825687339,-0.2349853515625,0.09686279296875,-0.41668701171875,0.872802734375,0.5625,-0.4375,-0.0625,0.0234375,-0.501953125,0.8916015625
78,1597982825703417,-0.2349853515625,0.09686279296875,-0.41668701171875,0.872802734375,0.4375,-0.625,-0.125,0.029296875,-0.49658203125,0.8935546875
79,1597982825726427,-0.2349853515625,0.0968017578125,-0.41668701171875,0.872802734375,0.0625,-0.375,-0.25,0.03271484375,-0.4970703125,0.89111328125
80,1597982825747425,-0.2349853515625,0.09686279296875,-0.41668701171875,0.872802734375,-0.25,0.0625,-0.0625,0.0244140625,-0.50048828125,0.8857421875
81,1597982825763419,-0.2349853515625,0.0968017578125,-0.41668701171875,0.872802734375,-0.0625,-0.1875,0.0,0.0302734375,-0.5029296875,0.888671875
82,1597982825786419,-0.2349853515625,0.0968017578125,-0.41668701171875,0.872802734375,0.5625,0.1875,0.0,0.0283203125,-0.5,0.89599609375
83,1597982825807425,-0.2349853515625,0.09686279296875,-0.41668701171875,0.872802734375,0.8125,0.1875,0.1875,0.02197265625,-0.5048828125,0.88818359375
84,1597982825823418,-0.2349853515625,0.09686279296875,-0.41668701171875,0.872802734375,-0.0625,-0.0625,-0.0625,0.021484375,-0.50048828125,0.88623046875
85,1597982825846425,-0.2349853515625,0.09686279296875,-0.41668701171875,0.872802734375,-0.1875,-0.375,-0.1875,0.0263671875,-0.50244140625,0.890625
86,1597982825867424,-0.2349853515625,0.09686279296875,-0.41668701171875,0.872802734375,0.0,-0.3125,0.125,0.02734375,-0.501953125,0.8955078125
87,1597982825883498,-0.2349853515625,0.09686279296875,-0.41668701171875,0.872802734375,0.625,0.0625,0.125,0.0283203125,-0.49755859375,0.88916015625
88,1597982825906504,-0.234619140625,0.09674072265625,-0.416748046875,0.87286376953125,1.6875,0.25,0.0,0.02783203125,-0.49755859375,0.890625
89,1597982825927495,-0.234619140625,0.09674072265625,-0.416748046875,0.87286376953125,0.6875,0.3125,0.125,0.02734375,-0.49560546875,0.88916015625
90,1597982825943575,-0.234619140625,0.0966796875,-0.416748046875,0.87286376953125,-0.9375,0.0,-0.1875,0.02783203125,-0.49365234375,0.89599609375
91,1597982825966579,-0.2349853515625,0.0968017578125,-0.416748046875,0.87274169921875,-2.625,0.1875,-0.125,0.0341796875,-0.49560546875,0.89013671875
92,1597982825987577,-0.23541259765625,0.09698486328125,-0.41668701171875,0.8726806640625,-2.3125,0.0625,0.0625,0.02978515625,-0.51318359375,0.8916015625
93,1597982826003656,-0.235107421875,0.09686279296875,-0.416748046875,0.87274169921875,2.1875,0.25,0.0,0.02978515625,-0.51123046875,0.89404296875
94,1597982826025662,-0.23455810546875,0.0966796875,-0.4168701171875,0.872802734375,3.8125,0.4375,-0.4375,0.025390625,-0.501953125,0.87890625
95,1597982826047656,-0.23419189453125,0.096435546875,-0.41693115234375,0.8729248046875,3.0,-0.25,-0.0625,0.033203125,-0.5068359375,0.88720703125
96,1597982826063748,-0.2333984375,0.09600830078125,-0.4169921875,0.8731689453125,5.25,0.5,0.375,0.03662109375,-0.4990234375,0.8974609375
97,1597982826085766,-0.2320556640625,0.09576416015625,-0.417236328125,0.8734130859375,7.3125,2.5,0.25,0.03076171875,-0.486328125,0.88720703125
98,1597982826108744,-0.23101806640625,0.09600830078125,-0.41754150390625,0.87353515625,3.625,4.3125,-0.375,0.02978515625,-0.47802734375,0.89453125
99,1597982826123747,-0.23095703125,0.09698486328125,-0.417724609375,0.87335205078125,-1.125,5.25,-0.25,0.02392578125,-0.4990234375,0.8798828125
100,1597982826145760,-0.2310791015625,0.0977783203125,-0.4178466796875,0.8731689453125,0.1875,3.5625,-0.25,0.01611328125,-0.54150390625,0.8779296875
