index,timestamp,orientation_x,orientation_y,orientation_z,orientation_w,gyroscope_x,gyroscope_y,gyroscope_z,acceleration_x,acceleration_y,acceleration_z
0,1597982178541415,0.0196533203125,-0.5166015625,0.69635009765625,0.497802734375,-6.1875,-3.125,-20.3125,0.55517578125,-0.822265625,0.54150390625
1,1597982178559409,0.0201416015625,-0.516845703125,0.69512939453125,0.49920654296875,-2.5,-0.4375,-13.5625,0.55517578125,-0.79443359375,0.515625
2,1597982178578406,0.02130126953125,-0.516357421875,0.69537353515625,0.499267578125,7.1875,-2.0,-3.1875,0.56884765625,-0.728515625,0.46044921875
3,1597982178602429,0.0224609375,-0.51629638671875,0.69586181640625,0.4986572265625,7.375,-3.6875,1.25,0.564453125,-0.69482421875,0.4150390625
4,1597982178619420,0.02386474609375,-0.5167236328125,0.69586181640625,0.4981689453125,5.75,-5.0,-0.9375,0.56201171875,-0.6865234375,0.3876953125
5,1597982178638415,0.02593994140625,-0.51702880859375,0.6961669921875,0.497314453125,8.4375,-8.3125,-0.1875,0.5810546875,-0.68798828125,0.40771484375
6,1597982178661415,0.02813720703125,-0.5169677734375,0.69683837890625,0.49627685546875,11.3125,-7.625,2.0625,0.6083984375,-0.69775390625,0.4091796875
7,1597982178679410,0.0299072265625,-0.51629638671875,0.69781494140625,0.49560546875,12.0625,-4.3125,2.8125,0.6025390625,-0.6865234375,0.4345703125
8,1597982178698415,0.0311279296875,-0.5152587890625,0.6988525390625,0.4951171875,11.375,-1.8125,2.5,0.58447265625,-0.689453125,0.44970703125
9,1597982178721414,0.03216552734375,-0.51446533203125,0.69970703125,0.49456787109375,8.6875,-2.6875,2.1875,0.56396484375,-0.6787109375,0.46533203125
10,1597982178739502,0.03314208984375,-0.51385498046875,0.70050048828125,0.4940185546875,7.5625,-3.5625,1.625,0.560546875,-0.6923828125,0.47412109375
11,1597982178758502,0.0341796875,-0.51300048828125,0.7012939453125,0.49371337890625,8.4375,-2.875,0.4375,0.556640625,-0.68603515625,0.4775390625
12,1597982178781503,0.0350341796875,-0.512451171875,0.7017822265625,0.4935302734375,5.25,-2.5,-0.1875,0.5625,-0.6875,0.48779296875
13,1597982178799504,0.03521728515625,-0.5120849609375,0.70220947265625,0.49334716796875,2.25,-1.375,0.6875,0.5517578125,-0.69482421875,0.50341796875
14,1597982178818504,0.034912109375,-0.51202392578125,0.70245361328125,0.49310302734375,-1.25,-0.9375,2.0625,0.548828125,-0.6943359375,0.5078125
15,1597982178841502,0.034423828125,-0.5120849609375,0.70263671875,0.4927978515625,-2.125,-0.625,2.25,0.54150390625,-0.6982421875,0.50390625
16,1597982178859646,0.0338134765625,-0.51214599609375,0.70281982421875,0.4925537109375,-2.5,0.1875,2.5625,0.548828125,-0.697265625,0.49853515625
17,1597982178878662,0.0333251953125,-0.51226806640625,0.70281982421875,0.49237060546875,-2.1875,0.75,1.6875,0.54443359375,-0.69189453125,0.48486328125
18,1597982178901671,0.03289794921875,-0.51251220703125,0.7027587890625,0.49224853515625,-2.5625,0.3125,1.6875,0.5517578125,-0.68798828125,0.47607421875
19,1597982178919666,0.0323486328125,-0.5130615234375,0.7025146484375,0.4920654296875,-4.6875,-0.3125,1.3125,0.55517578125,-0.69921875,0.48193359375
20,1597982178939755,0.03167724609375,-0.51348876953125,0.7022705078125,0.4920654296875,-4.8125,0.3125,0.8125,0.55810546875,-0.724609375,0.50634765625
21,1597982178961754,0.03070068359375,-0.515869140625,0.7008056640625,0.49169921875,-15.0625,-2.6875,0.25,0.57421875,-0.72998046875,0.45068359375
22,1597982178978756,0.02874755859375,-0.51544189453125,0.70184326171875,0.49078369140625,0.0,4.6875,9.625,0.54541015625,-0.76806640625,0.51171875
23,1597982179007833,0.02520751953125,-0.516845703125,0.702392578125,0.48870849609375,-10.75,4.75,17.625,0.57666015625,-0.826171875,0.48681640625
24,1597982179020918,0.02252197265625,-0.5157470703125,0.70428466796875,0.48724365234375,4.6875,10.4375,17.6875,0.55615234375,-0.7607421875,0.46044921875
25,1597982179038920,0.0198974609375,-0.51361083984375,0.7069091796875,0.48577880859375,7.75,11.5,20.6875,0.53466796875,-0.72021484375,0.51025390625
26,1597982179059987,0.01495361328125,-0.51300048828125,0.7091064453125,0.4833984375,-4.25,15.6875,30.9375,0.5712890625,-0.765625,0.50244140625
27,1597982179080994,0.01019287109375,-0.50927734375,0.713134765625,0.4815673828125,12.5,21.9375,29.4375,0.4814453125,-0.76416015625,0.5361328125
28,1597982179098989,0.0040283203125,-0.5086669921875,0.71539306640625,0.47900390625,-9.25,16.8125,32.4375,0.4599609375,-0.73828125,0.5234375
29,1597982179119986,-0.0003662109375,-0.503173828125,0.7196044921875,0.4783935546875,9.6875,27.25,33.5625,0.58447265625,-0.681640625,0.7177734375
30,1597982179140994,-0.00823974609375,-0.49993896484375,0.7227783203125,0.47698974609375,1.125,38.8125,38.6875,0.46728515625,-0.6875,0.45947265625
31,1597982179158985,-0.0201416015625,-0.50042724609375,0.72296142578125,0.4759521484375,-40.375,37.25,33.8125,0.2451171875,-0.57568359375,0.51171875
32,1597982179179993,-0.031005859375,-0.50628662109375,0.7186279296875,0.4757080078125,-71.8125,23.875,16.875,0.30712890625,-0.619140625,0.49658203125
33,1597982179200994,-0.04302978515625,-0.51751708984375,0.7125244140625,0.47174072265625,-86.5625,12.1875,28.5,0.4716796875,-0.99658203125,0.392578125
34,1597982179219084,-0.04962158203125,-0.51885986328125,0.71258544921875,0.46954345703125,-18.375,18.8125,27.0,0.50146484375,-0.99072265625,0.47705078125
35,1597982179242091,-0.053466796875,-0.51422119140625,0.7169189453125,0.4676513671875,26.5,22.6875,29.75,0.419921875,-0.9033203125,0.43115234375
36,1597982179261090,-0.05517578125,-0.507568359375,0.7208251953125,0.46875,34.9375,27.5,13.6875,0.38818359375,-0.74365234375,0.44580078125
37,1597982179279084,-0.05767822265625,-0.5048828125,0.72186279296875,0.4697265625,5.4375,22.0625,12.0,0.42041015625,-0.65869140625,0.447265625
38,1597982179302092,-0.060302734375,-0.50421142578125,0.72247314453125,0.46917724609375,-4.1875,11.125,13.25,0.34521484375,-0.6376953125,0.4208984375
39,1597982179321090,-0.06231689453125,-0.5067138671875,0.7215576171875,0.46759033203125,-15.3125,0.125,11.0625,0.41064453125,-0.7734375,0.4052734375
40,1597982179339172,-0.06207275390625,-0.5078125,0.7210693359375,0.46722412109375,-4.125,0.6875,6.9375,0.51513671875,-0.77392578125,0.43603515625
41,1597982179361256,-0.0625,-0.50738525390625,0.72088623046875,0.46795654296875,-0.5625,9.375,5.875,0.5029296875,-0.7333984375,0.46240234375
42,1597982179381255,-0.0643310546875,-0.50787353515625,0.72015380859375,0.46826171875,-8.8125,9.625,5.5,0.419921875,-0.732421875,0.43505859375
43,1597982179399247,-0.06683349609375,-0.510986328125,0.7183837890625,0.46728515625,-22.375,0.9375,5.0,0.38037109375,-0.81689453125,0.4306640625
44,1597982179422322,-0.06719970703125,-0.51214599609375,0.71771240234375,0.4669189453125,-7.0,-0.6875,2.625,0.43896484375,-0.830078125,0.4716796875
45,1597982179441419,-0.06622314453125,-0.51043701171875,0.71856689453125,0.46759033203125,10.0,2.8125,-0.125,0.4228515625,-0.783203125,0.49951171875
46,1597982179459489,-0.06591796875,-0.51007080078125,0.718505859375,0.46820068359375,-1.0625,0.5,-1.6875,0.3779296875,-0.72314453125,0.49267578125
47,1597982179481483,-0.0657958984375,-0.51177978515625,0.717529296875,0.4677734375,-10.8125,-5.875,-1.125,0.392578125,-0.7861328125,0.47705078125
48,1597982179501488,-0.06524658203125,-0.51287841796875,0.7171630859375,0.46722412109375,-3.9375,-6.5625,-0.75,0.4072265625,-0.8349609375,0.484375
49,1597982179519481,-0.06390380859375,-0.5123291015625,0.71783447265625,0.46697998046875,6.375,-5.0625,-0.1875,0.40673828125,-0.81591796875,0.4990234375
50,1597982179541483,-0.06280517578125,-0.51116943359375,0.71881103515625,0.46697998046875,8.9375,-3.1875,-1.125,0.376953125,-0.798828125,0.4990234375
51,1597982179561556,-0.061767578125,-0.51080322265625,0.71923828125,0.46685791015625,4.5625,-4.0625,-1.3125,0.3828125,-0.78466796875,0.4814453125
52,1597982179579548,-0.06170654296875,-0.51123046875,0.71917724609375,0.466552734375,-2.3125,-3.0625,0.0,0.3837890625,-0.81494140625,0.490234375
53,1597982179602550,-0.06170654296875,-0.510986328125,0.71929931640625,0.466552734375,0.9375,-0.3125,-1.1875,0.38037109375,-0.82470703125,0.4970703125
54,1597982179621556,-0.061279296875,-0.51043701171875,0.719482421875,0.4669189453125,3.4375,-0.0625,-2.875,0.37744140625,-0.8037109375,0.48388671875
55,1597982179638550,-0.0611572265625,-0.51043701171875,0.7193603515625,0.46710205078125,-0.1875,-0.4375,-1.5625,0.39111328125,-0.7998046875,0.48681640625
56,1597982179660557,-0.06158447265625,-0.5107421875,0.7191162109375,0.46710205078125,-4.0,0.625,0.5,0.39794921875,-0.81494140625,0.49365234375
57,1597982179681556,-0.06207275390625,-0.51068115234375,0.7191162109375,0.4671630859375,-0.6875,1.875,-0.1875,0.37841796875,-0.81689453125,0.4794921875
58,1597982179698551,-0.0625,-0.51043701171875,0.71905517578125,0.4674072265625,-0.75,2.75,0.25,0.3955078125,-0.81787109375,0.49365234375
59,1597982179720556,-0.06298828125,-0.510009765625,0.71917724609375,0.46771240234375,-0.6875,3.0,0.125,0.380859375,-0.79345703125,0.50146484375
60,1597982179741556,-0.06329345703125,-0.509765625,0.71917724609375,0.46783447265625,-0.25,1.625,-0.5,0.3740234375,-0.80419921875,0.48291015625
61,1597982179758550,-0.06304931640625,-0.5093994140625,0.71929931640625,0.4681396484375,2.9375,1.125,-1.4375,0.39404296875,-0.802734375,0.4755859375
62,1597982179780560,-0.0626220703125,-0.50860595703125,0.71954345703125,0.4686279296875,3.875,1.4375,-1.5625,0.39453125,-0.775390625,0.48828125
63,1597982179809556,-0.062744140625,-0.50872802734375,0.71923828125,0.46893310546875,-1.8125,1.3125,-0.875,0.39794921875,-0.78857421875,0.4765625
64,1597982179818551,-0.0631103515625,-0.50885009765625,0.71893310546875,0.46923828125,-2.25,2.5625,-0.75,0.404296875,-0.8115234375,0.486328125
65,1597982179840630,-0.0634765625,-0.50848388671875,0.71881103515625,0.4698486328125,-0.9375,3.625,-1.5625,0.3828125,-0.78271484375,0.49267578125
66,1597982179861638,-0.06341552734375,-0.50848388671875,0.71875,0.46990966796875,0.375,-0.3125,-1.4375,0.3798828125,-0.8046875,0.47314453125
67,1597982179878628,-0.06317138671875,-0.50848388671875,0.71856689453125,0.47021484375,0.4375,0.25,-2.0625,0.39599609375,-0.7880859375,0.47314453125
68,1597982179900634,-0.0634765625,-0.509033203125,0.71826171875,0.47003173828125,-3.625,-0.375,0.1875,0.3916015625,-0.81787109375,0.47998046875
69,1597982179921636,-0.06365966796875,-0.5093994140625,0.71807861328125,0.4698486328125,-1.125,-0.6875,-0.0625,0.392578125,-0.83447265625,0.47265625
70,1597982179938628,-0.06353759765625,-0.509033203125,0.71826171875,0.47003173828125,1.875,0.375,-0.9375,0.38330078125,-0.80224609375,0.484375
71,1597982179960630,-0.06365966796875,-0.50872802734375,0.71832275390625,0.47021484375,-0.625,1.6875,0.75,0.39892578125,-0.77294921875,0.4951171875
72,1597982179981637,-0.06463623046875,-0.5089111328125,0.71807861328125,0.47021484375,-4.25,2.625,0.75,0.36572265625,-0.80859375,0.48583984375
73,1597982179998644,-0.06500244140625,-0.5089111328125,0.71795654296875,0.470458984375,-1.3125,1.6875,-0.9375,0.3779296875,-0.80224609375,0.47900390625
74,1597982180020635,-0.06500244140625,-0.5089111328125,0.71795654296875,0.470458984375,0.875,0.375,0.0,0.390625,-0.79296875,0.48193359375
75,1597982180041811,-0.065185546875,-0.5091552734375,0.7178955078125,0.47027587890625,-2.1875,-0.125,1.6875,0.40625,-0.81298828125,0.48974609375
76,1597982180058812,-0.065673828125,-0.50927734375,0.71783447265625,0.47015380859375,-1.625,1.5625,1.875,0.396484375,-0.81640625,0.482421875
77,1597982180080806,-0.06597900390625,-0.5086669921875,0.71826171875,0.47003173828125,2.5625,1.9375,2.0,0.3740234375,-0.794921875,0.48046875
78,1597982180101811,-0.06622314453125,-0.50830078125,0.71844482421875,0.47021484375,1.0,1.375,-0.625,0.36181640625,-0.79248046875,0.48095703125
79,1597982180118812,-0.06640625,-0.50860595703125,0.71807861328125,0.47039794921875,-3.5,0.125,-1.3125,0.38232421875,-0.79052734375,0.4873046875
80,1597982180140803,-0.06683349609375,-0.50921630859375,0.71759033203125,0.4703369140625,-5.375,0.1875,0.0625,0.39453125,-0.81689453125,0.48486328125
81,1597982180161805,-0.0667724609375,-0.50872802734375,0.71783447265625,0.47052001953125,2.875,1.375,-0.1875,0.3955078125,-0.82080078125,0.48974609375
82,1597982180184808,-0.0665283203125,-0.508056640625,0.71826171875,0.47064208984375,4.5,1.0,0.625,0.38720703125,-0.78759765625,0.48095703125
83,1597982180200803,-0.066650390625,-0.5079345703125,0.7183837890625,0.4705810546875,-0.5,0.375,1.0625,0.388671875,-0.80029296875,0.49169921875
84,1597982180223812,-0.067138671875,-0.50823974609375,0.7181396484375,0.47052001953125,-4.0625,0.875,1.375,0.39501953125,-0.80810546875,0.4951171875
85,1597982180238812,-0.06756591796875,-0.50811767578125,0.71820068359375,0.47052001953125,-0.125,2.3125,1.125,0.392578125,-0.8212890625,0.48486328125
86,1597982180260803,-0.06787109375,-0.50762939453125,0.718505859375,0.4705810546875,1.8125,1.8125,0.625,0.36865234375,-0.8125,0.4873046875
87,1597982180283812,-0.06787109375,-0.5072021484375,0.7186279296875,0.4708251953125,1.3125,1.5,-0.4375,0.3837890625,-0.78857421875,0.4912109375
88,1597982180298812,-0.06805419921875,-0.5072021484375,0.718505859375,0.470947265625,-0.6875,1.0625,-0.125,0.38671875,-0.8037109375,0.4833984375
89,1597982180320803,-0.06805419921875,-0.50689697265625,0.71868896484375,0.4710693359375,1.3125,0.8125,0.0625,0.3837890625,-0.81005859375,0.48876953125
90,1597982180343803,-0.0679931640625,-0.5064697265625,0.71881103515625,0.4713134765625,1.6875,1.4375,-0.4375,0.3828125,-0.78515625,0.48974609375
91,1597982180357802,-0.0679931640625,-0.50616455078125,0.7188720703125,0.47149658203125,1.25,1.3125,-0.3125,0.38427734375,-0.794921875,0.4794921875
92,1597982180380805,-0.0679931640625,-0.5062255859375,0.7188720703125,0.47149658203125,-0.9375,0.8125,0.5625,0.3837890625,-0.81396484375,0.484375
93,1597982180403812,-0.0679931640625,-0.5062255859375,0.7188720703125,0.47149658203125,0.3125,0.875,0.0625,0.38330078125,-0.80419921875,0.4853515625
94,1597982180417805,-0.06805419921875,-0.5059814453125,0.71893310546875,0.47161865234375,1.0625,1.25,-0.3125,0.3837890625,-0.8056640625,0.48046875
95,1597982180440803,-0.06817626953125,-0.505859375,0.7188720703125,0.47186279296875,-0.5625,1.25,-0.625,0.380859375,-0.79296875,0.4892578125
96,1597982180463812,-0.06829833984375,-0.5062255859375,0.7186279296875,0.4718017578125,-1.5625,0.0,0.125,0.39208984375,-0.806640625,0.474609375
97,1597982180477806,-0.06829833984375,-0.5062255859375,0.7186279296875,0.4718017578125,0.625,-0.0625,-0.0625,0.3798828125,-0.80615234375,0.4814453125
98,1597982180500802,-0.06829833984375,-0.50616455078125,0.71868896484375,0.4718017578125,-0.5,-0.0625,0.6875,0.38720703125,-0.796875,0.49267578125
99,1597982180523813,-0.06866455078125,-0.50634765625,0.7186279296875,0.47161865234375,-1.375,0.4375,1.625,0.38623046875,-0.8125,0.48388671875
100,1597982180537803,-0.06890869140625,-0.5059814453125,0.718994140625,0.471435546875,1.625,1.125,2.3125,0.37548828125,-0.80224609375,0.484375
