index,timestamp,orientation_x,orientation_y,orientation_z,orientation_w,gyroscope_x,gyroscope_y,gyroscope_z,acceleration_x,acceleration_y,acceleration_z
0,1597652269682786,0.02606201171875,-0.0938720703125,-0.57562255859375,0.8118896484375,0.625,0.5,0.125,0.12109375,0.15869140625,0.97802734375
1,1597652269707071,0.02581787109375,-0.09375,-0.5755615234375,0.81195068359375,-1.4375,0.1875,0.3125,0.1259765625,0.14794921875,0.9677734375
2,1597652269725519,0.02581787109375,-0.09381103515625,-0.5755615234375,0.81195068359375,-0.1875,-0.125,-0.5,0.123046875,0.14697265625,0.9677734375
3,1597652269745515,0.02581787109375,-0.09381103515625,-0.5755615234375,0.81195068359375,0.75,-0.125,-0.25,0.1240234375,0.1474609375,0.97314453125
4,1597652269764508,0.02581787109375,-0.09381103515625,-0.5755615234375,0.81195068359375,0.5625,0.0625,-0.125,0.12255859375,0.1513671875,0.97509765625
5,1597652269785565,0.02581787109375,-0.09381103515625,-0.5755615234375,0.81195068359375,-0.1875,-0.125,-0.5625,0.12255859375,0.146484375,0.9697265625
6,1597652269801714,0.02581787109375,-0.09381103515625,-0.5755615234375,0.81195068359375,-0.5625,-0.0625,-0.8125,0.12158203125,0.1494140625,0.97607421875
7,1597652269823926,0.02581787109375,-0.09381103515625,-0.5755615234375,0.81195068359375,0.125,0.1875,-0.5,0.12109375,0.15283203125,0.9765625
8,1597652269847126,0.02581787109375,-0.09381103515625,-0.5755615234375,0.81195068359375,0.0,-0.4375,-0.1875,0.1220703125,0.15478515625,0.96142578125
9,1597652269861902,0.02581787109375,-0.09381103515625,-0.5755615234375,0.81195068359375,0.125,-0.5625,0.25,0.1259765625,0.14306640625,0.9775390625
10,1597652269884095,0.02581787109375,-0.09381103515625,-0.5755615234375,0.81195068359375,0.125,0.8125,-0.5,0.1259765625,0.14111328125,0.96142578125
11,1597652269907210,0.0260009765625,-0.09375,-0.57562255859375,0.8118896484375,0.8125,1.0625,-0.4375,0.12255859375,0.1455078125,0.97216796875
12,1597652269920958,0.02593994140625,-0.09356689453125,-0.57574462890625,0.81182861328125,-1.375,0.5,-0.8125,0.1181640625,0.15234375,0.96826171875
13,1597652269943890,0.02581787109375,-0.09332275390625,-0.5758056640625,0.81182861328125,-1.0625,0.1875,-0.375,0.1162109375,0.14697265625,0.9853515625
14,1597652269967151,0.02581787109375,-0.09332275390625,-0.5758056640625,0.81182861328125,0.125,-0.3125,-0.5625,0.11962890625,0.14697265625,0.97119140625
15,1597652269982146,0.02581787109375,-0.09332275390625,-0.5758056640625,0.81182861328125,0.8125,-0.4375,0.625,0.1240234375,0.14208984375,0.96240234375
16,1597652270004071,0.02606201171875,-0.0936279296875,-0.57574462890625,0.81182861328125,2.1875,-0.125,0.25,0.12255859375,0.1484375,0.96533203125
17,1597652270026851,0.026123046875,-0.0936279296875,-0.57574462890625,0.81182861328125,0.3125,0.375,-0.375,0.119140625,0.15625,0.9794921875
18,1597652270041650,0.0260009765625,-0.09344482421875,-0.57568359375,0.8118896484375,-1.1875,0.6875,0.4375,0.12353515625,0.1474609375,0.96826171875
19,1597652270064804,0.02587890625,-0.09368896484375,-0.575439453125,0.81201171875,0.125,-1.5,1.5,0.12060546875,0.15185546875,0.9765625
20,1597652270086950,0.026123046875,-0.09381103515625,-0.5753173828125,0.8121337890625,1.8125,0.4375,0.6875,0.12158203125,0.1455078125,0.98046875
21,1597652270101653,0.026611328125,-0.09381103515625,-0.5753173828125,0.81207275390625,2.8125,1.6875,-0.4375,0.12451171875,0.14453125,0.98291015625
22,1597652270124430,0.0269775390625,-0.09381103515625,-0.57525634765625,0.8121337890625,1.375,1.0,0.3125,0.11767578125,0.1552734375,0.9658203125
23,1597652270146430,0.02740478515625,-0.093994140625,-0.57513427734375,0.8121337890625,1.9375,0.9375,0.4375,0.12353515625,0.1630859375,0.984375
24,1597652270161428,0.02783203125,-0.09393310546875,-0.5750732421875,0.81219482421875,1.8125,1.8125,0.0,0.1240234375,0.14990234375,0.9794921875
25,1597652270184431,0.0281982421875,-0.0938720703125,-0.574951171875,0.812255859375,1.875,1.25,0.6875,0.1162109375,0.1494140625,0.982421875
26,1597652270207323,0.0294189453125,-0.09368896484375,-0.5745849609375,0.8125,5.5,5.25,1.625,0.12060546875,0.15283203125,0.9912109375
27,1597652270221430,0.03009033203125,-0.09320068359375,-0.574462890625,0.81268310546875,2.25,4.25,0.6875,0.10986328125,0.13916015625,0.93896484375
28,1597652270244792,0.03143310546875,-0.09375,-0.57373046875,0.81304931640625,8.0625,4.25,3.625,0.146484375,0.16162109375,0.98583984375
29,1597652270266559,0.03375244140625,-0.09326171875,-0.57305908203125,0.8134765625,8.625,9.6875,3.5625,0.10302734375,0.17529296875,0.982421875
30,1597652270281561,0.03570556640625,-0.09210205078125,-0.5726318359375,0.8138427734375,4.1875,13.625,1.6875,0.1318359375,0.1826171875,0.98193359375
31,1597652270304882,0.03741455078125,-0.09033203125,-0.57220458984375,0.81427001953125,1.625,14.3125,2.0,0.10888671875,0.17333984375,0.99462890625
32,1597652270326808,0.03912353515625,-0.08868408203125,-0.5718994140625,0.8145751953125,2.125,10.4375,1.8125,0.05224609375,0.16796875,0.95361328125
33,1597652270347834,0.03948974609375,-0.0880126953125,-0.57147216796875,0.81488037109375,-0.5,6.875,2.1875,0.12841796875,0.1669921875,0.98291015625
34,1597652270363804,0.0411376953125,-0.08673095703125,-0.5712890625,0.81512451171875,3.5625,11.8125,0.3125,0.10205078125,0.1630859375,0.9833984375
35,1597652270388821,0.04248046875,-0.0858154296875,-0.57122802734375,0.815185546875,3.6875,7.1875,-0.25,0.064453125,0.1572265625,0.94873046875
36,1597652270407815,0.0430908203125,-0.08551025390625,-0.57086181640625,0.8154296875,-0.5625,4.0,2.3125,0.09375,0.2001953125,0.96240234375
37,1597652270425702,0.04345703125,-0.084716796875,-0.570556640625,0.81573486328125,-1.75,3.9375,2.625,0.06591796875,0.169921875,0.9365234375
38,1597652270447144,0.04437255859375,-0.08477783203125,-0.57073974609375,0.8155517578125,3.6875,4.4375,-2.3125,0.11962890625,0.18359375,0.9921875
39,1597652270468144,0.04656982421875,-0.0843505859375,-0.57135009765625,0.81500244140625,6.625,10.75,-6.0625,0.10595703125,0.19873046875,0.96435546875
40,1597652270484357,0.04937744140625,-0.08319091796875,-0.5723876953125,0.81427001953125,4.25,11.6875,-8.0,0.05029296875,0.244140625,0.9814453125
41,1597652270507274,0.0484619140625,-0.08154296875,-0.57275390625,0.814208984375,-8.875,5.5,-2.125,0.08642578125,0.1552734375,0.97216796875
42,1597652270528353,0.04949951171875,-0.08026123046875,-0.57244873046875,0.81451416015625,1.625,11.125,1.1875,0.09765625,0.1630859375,1.0107421875
43,1597652270544349,0.0526123046875,-0.07794189453125,-0.57275390625,0.81427001953125,4.3125,19.875,-4.1875,0.052734375,0.2197265625,1.0185546875
44,1597652270567344,0.05438232421875,-0.07501220703125,-0.5736083984375,0.8138427734375,-3.125,15.6875,-6.375,0.0146484375,0.19775390625,0.9833984375
45,1597652270588348,0.0545654296875,-0.072265625,-0.5740966796875,0.813720703125,-6.9375,11.3125,-3.4375,0.02734375,0.1484375,0.97998046875
46,1597652270612354,0.0557861328125,-0.07073974609375,-0.57440185546875,0.8135986328125,3.75,13.0,-3.4375,0.08349609375,0.13037109375,1.01904296875
47,1597652270626737,0.05914306640625,-0.0692138671875,-0.5748291015625,0.81317138671875,8.4375,19.0625,-5.4375,0.060546875,0.2119140625,1.013671875
48,1597652270647574,0.0614013671875,-0.06640625,-0.575439453125,0.81280517578125,-0.4375,19.5,-5.625,0.0263671875,0.19677734375,0.9677734375
49,1597652270664579,0.06201171875,-0.063720703125,-0.57623291015625,0.81243896484375,-4.875,14.375,-6.3125,0.0361328125,0.14892578125,0.9658203125
50,1597652270686662,0.0626220703125,-0.06170654296875,-0.5770263671875,0.81195068359375,0.9375,10.5625,-6.375,0.021484375,0.10009765625,0.9619140625
51,1597652270708962,0.06536865234375,-0.06158447265625,-0.57733154296875,0.8115234375,13.4375,10.875,-4.0,0.0439453125,0.15869140625,0.978515625
52,1597652270723850,0.068115234375,-0.061279296875,-0.57781982421875,0.81097412109375,8.6875,9.5,-5.125,0.01416015625,0.21630859375,0.9345703125
53,1597652270747210,0.068115234375,-0.05999755859375,-0.5784912109375,0.81060791015625,-4.6875,6.375,-5.0625,0.029296875,0.1796875,0.953125
54,1597652270767954,0.06787109375,-0.05853271484375,-0.57904052734375,0.810302734375,-3.3125,7.5625,-4.4375,0.041015625,0.1318359375,0.95166015625
55,1597652270783964,0.069091796875,-0.05792236328125,-0.57928466796875,0.81011962890625,6.25,6.5,-2.4375,0.0146484375,0.13720703125,0.970703125
56,1597652270806959,0.0712890625,-0.05780029296875,-0.57958984375,0.8096923828125,10.125,8.8125,-3.8125,0.02294921875,0.1748046875,0.95849609375
57,1597652270829871,0.07305908203125,-0.05694580078125,-0.57989501953125,0.80938720703125,2.6875,8.4375,-3.25,-0.005859375,0.21630859375,0.96142578125
58,1597652270844594,0.07427978515625,-0.056396484375,-0.579833984375,0.80938720703125,3.875,5.25,-0.0625,-0.0166015625,0.18505859375,0.9775390625
59,1597652270866585,0.0753173828125,-0.05670166015625,-0.5794677734375,0.80950927734375,7.6875,0.75,2.0,-0.01708984375,0.1552734375,0.96484375
60,1597652270889588,0.07696533203125,-0.0579833984375,-0.578857421875,0.8096923828125,13.1875,1.9375,3.0625,0.033203125,0.17529296875,0.97802734375
61,1597652270904595,0.07867431640625,-0.05804443359375,-0.57867431640625,0.8096923828125,8.5,6.8125,0.3125,0.021484375,0.1875,0.97607421875
62,1597652270927315,0.08050537109375,-0.05767822265625,-0.5789794921875,0.80926513671875,5.3125,4.375,-3.25,-0.04248046875,0.2236328125,0.96044921875
63,1597652270949306,0.080322265625,-0.05810546875,-0.5792236328125,0.80908203125,3.3125,-2.875,-1.5,-0.00048828125,0.14794921875,0.9326171875
64,1597652270963471,0.079833984375,-0.05841064453125,-0.57940673828125,0.80902099609375,-1.375,-0.75,-1.0625,0.03662109375,0.19091796875,0.96484375
65,1597652270987308,0.0806884765625,-0.05804443359375,-0.579345703125,0.8089599609375,4.5625,4.75,-0.5625,0.00341796875,0.16650390625,0.9580078125
66,1597652271009304,0.08209228515625,-0.05804443359375,-0.5794677734375,0.8087158203125,6.5,2.125,-1.4375,-0.03515625,0.1943359375,0.931640625
67,1597652271024096,0.08154296875,-0.05841064453125,-0.57940673828125,0.808837890625,0.125,-3.25,0.8125,0.00244140625,0.17041015625,0.9521484375
68,1597652271046674,0.0816650390625,-0.05859375,-0.57916259765625,0.80902099609375,2.25,1.1875,1.625,0.02294921875,0.1787109375,0.96484375
69,1597652271069672,0.08251953125,-0.05828857421875,-0.57861328125,0.80926513671875,4.4375,4.375,2.875,-0.00830078125,0.1796875,0.97119140625
70,1597652271083888,0.08306884765625,-0.05804443359375,-0.5782470703125,0.80950927734375,0.125,-0.125,2.8125,-0.0498046875,0.216796875,0.94384765625
71,1597652271107064,0.0826416015625,-0.05841064453125,-0.5780029296875,0.8096923828125,-1.6875,-2.9375,2.125,0.0029296875,0.20849609375,0.95166015625
72,1597652271129694,0.08258056640625,-0.0584716796875,-0.5780029296875,0.80975341796875,-0.8125,0.9375,0.625,0.02099609375,0.19140625,0.97412109375
73,1597652271143676,0.0831298828125,-0.0577392578125,-0.577880859375,0.809814453125,-0.9375,4.3125,0.3125,-0.01513671875,0.2109375,0.95556640625
74,1597652271166846,0.08294677734375,-0.05670166015625,-0.5782470703125,0.80963134765625,-4.75,0.625,-2.0,-0.052734375,0.20263671875,0.9541015625
75,1597652271189688,0.08184814453125,-0.05706787109375,-0.57843017578125,0.8095703125,-3.75,-4.625,-0.625,0.00830078125,0.1865234375,0.95654296875
76,1597652271203889,0.08154296875,-0.0576171875,-0.5787353515625,0.80938720703125,1.5,-3.25,-2.0,0.00439453125,0.17919921875,0.9541015625
77,1597652271226673,0.08099365234375,-0.05810546875,-0.5787353515625,0.80938720703125,-0.5,-4.1875,0.625,-0.00048828125,0.18408203125,0.95947265625
78,1597652271249724,0.07958984375,-0.0576171875,-0.5784912109375,0.80975341796875,-3.625,-3.25,2.5,-0.01611328125,0.11962890625,0.92041015625
79,1597652271270893,0.07904052734375,-0.0596923828125,-0.579345703125,0.80902099609375,0.8125,-21.0,-3.3125,-0.12158203125,0.22607421875,0.87109375
80,1597652271286897,0.07598876953125,-0.0640869140625,-0.58111572265625,0.80767822265625,1.125,-37.875,-8.5,-0.0751953125,0.1806640625,0.94580078125
81,1597652271308896,0.0728759765625,-0.07025146484375,-0.58282470703125,0.8062744140625,5.1875,-38.0,-9.3125,0.05712890625,0.21142578125,0.9814453125
82,1597652271330622,0.06988525390625,-0.07464599609375,-0.58441162109375,0.80499267578125,-2.125,-30.4375,-8.6875,0.0537109375,0.23291015625,0.958984375
83,1597652271346625,0.06463623046875,-0.0777587890625,-0.58514404296875,0.80462646484375,-13.625,-33.0625,-0.9375,0.03564453125,0.185546875,0.94189453125
84,1597652271370632,0.05877685546875,-0.080810546875,-0.58563232421875,0.80438232421875,-14.125,-34.125,0.5,0.05908203125,0.13916015625,0.94677734375
85,1597652271390637,0.053955078125,-0.08416748046875,-0.5859375,0.80413818359375,-8.0625,-31.1875,0.9375,0.08056640625,0.14453125,0.9853515625
86,1597652271407642,0.05084228515625,-0.08843994140625,-0.5859375,0.80389404296875,0.4375,-29.8125,1.75,0.087890625,0.17138671875,0.94775390625
87,1597652271429399,0.0472412109375,-0.09197998046875,-0.58587646484375,0.80377197265625,-5.0,-28.125,2.8125,0.095703125,0.18994140625,0.96435546875
88,1597652271450388,0.04376220703125,-0.0946044921875,-0.585693359375,0.80377197265625,-8.3125,-21.125,2.875,0.138671875,0.1923828125,0.98095703125
89,1597652271466425,0.04022216796875,-0.096435546875,-0.58551025390625,0.80389404296875,-10.25,-18.75,3.4375,0.12939453125,0.1826171875,0.98779296875
90,1597652271489649,0.03790283203125,-0.09869384765625,-0.58514404296875,0.80401611328125,-5.0625,-15.375,3.5625,0.158203125,0.21533203125,1.0283203125
91,1597652271494396,0.03564453125,-0.0997314453125,-0.584716796875,0.80426025390625,-8.375,-11.25,4.125,0.13671875,0.201171875,1.00048828125
92,1597652271517392,0.0347900390625,-0.10064697265625,-0.583984375,0.80474853515625,-2.1875,-6.6875,5.8125,0.126953125,0.203125,1.01708984375
93,1597652271532402,0.03253173828125,-0.10205078125,-0.5830078125,0.80535888671875,-7.25,-12.0,8.1875,0.1396484375,0.1953125,0.94140625
94,1597652271554608,0.03216552734375,-0.10443115234375,-0.58203125,0.8057861328125,2.5,-9.6875,6.5,0.173828125,0.2421875,1.0380859375
95,1597652271577416,0.0322265625,-0.1044921875,-0.58184814453125,0.805908203125,-1.75,0.4375,1.5625,0.13427734375,0.20703125,0.98388671875
96,1597652271592396,0.02996826171875,-0.10345458984375,-0.58160400390625,0.8062744140625,-15.0,-2.9375,3.6875,0.1259765625,0.1845703125,0.96923828125
97,1597652271614600,0.0279541015625,-0.10333251953125,-0.5810546875,0.8067626953125,-7.6875,-5.25,5.125,0.14404296875,0.1435546875,0.99658203125
98,1597652271637403,0.0272216796875,-0.10400390625,-0.579833984375,0.8076171875,-0.375,-5.3125,8.9375,0.1328125,0.16015625,0.9765625
99,1597652271652395,0.027099609375,-0.1048583984375,-0.5791015625,0.80804443359375,2.3125,-3.375,5.0,0.14501953125,0.169921875,0.9814453125
100,1597652271674391,0.028076171875,-0.10491943359375,-0.579345703125,0.80780029296875,2.3125,2.8125,-2.125,0.13330078125,0.197265625,0.9638671875
101,1597652271697418,0.027587890625,-0.10498046875,-0.579345703125,0.80780029296875,-4.125,-3.25,0.5,0.11767578125,0.19287109375,0.96240234375
