index,timestamp,orientation_x,orientation_y,orientation_z,orientation_w,gyroscope_x,gyroscope_y,gyroscope_z,acceleration_x,acceleration_y,acceleration_z
0,1597652245823611,0.040283203125,-0.11322021484375,-0.5926513671875,0.79638671875,-0.875,0.0625,0.1875,0.1298828125,0.197265625,0.96533203125
1,1597652245841330,0.03997802734375,-0.11297607421875,-0.5927734375,0.79638671875,-1.625,0.3125,-0.4375,0.13623046875,0.185546875,0.96435546875
2,1597652245861828,0.03997802734375,-0.11297607421875,-0.5927734375,0.79638671875,0.375,0.8125,-0.875,0.13037109375,0.1923828125,0.9619140625
3,1597652245883437,0.04046630859375,-0.113037109375,-0.5927734375,0.79638671875,1.6875,1.1875,-0.1875,0.125,0.20703125,0.9658203125
4,1597652245899620,0.04046630859375,-0.113037109375,-0.5927734375,0.79638671875,-0.5625,0.625,-0.125,0.12890625,0.19677734375,0.958984375
5,1597652245922321,0.0404052734375,-0.11273193359375,-0.59283447265625,0.79638671875,-0.75,1.375,-0.625,0.13671875,0.185546875,0.9599609375
6,1597652245943421,0.040771484375,-0.11260986328125,-0.59283447265625,0.79632568359375,1.4375,1.5,-0.4375,0.126953125,0.1943359375,0.96826171875
7,1597652245959906,0.04119873046875,-0.11260986328125,-0.59283447265625,0.79632568359375,0.75,1.0625,0.0,0.12109375,0.2119140625,0.9619140625
8,1597652245981954,0.04119873046875,-0.11260986328125,-0.59283447265625,0.79632568359375,-1.0,0.375,-0.375,0.12451171875,0.203125,0.95947265625
9,1597652246003264,0.0411376953125,-0.112548828125,-0.59283447265625,0.79632568359375,-0.75,0.0625,-0.125,0.134765625,0.1767578125,0.9501953125
10,1597652246019091,0.04156494140625,-0.11279296875,-0.5927734375,0.79638671875,2.8125,0.3125,0.125,0.12646484375,0.1943359375,0.96484375
11,1597652246042254,0.0421142578125,-0.11279296875,-0.59283447265625,0.7962646484375,2.25,1.4375,-0.875,0.125,0.2060546875,0.9716796875
12,1597652246063083,0.0423583984375,-0.11248779296875,-0.59295654296875,0.79620361328125,-0.375,1.375,-1.0,0.12158203125,0.2041015625,0.970703125
13,1597652246079780,0.042236328125,-0.11212158203125,-0.593017578125,0.7962646484375,-1.125,1.25,-0.125,0.12255859375,0.18408203125,0.9501953125
14,1597652246101490,0.04266357421875,-0.11236572265625,-0.59283447265625,0.79632568359375,2.875,0.625,0.8125,0.12841796875,0.201171875,0.9755859375
15,1597652246123485,0.04327392578125,-0.11224365234375,-0.59246826171875,0.79656982421875,3.625,3.125,1.9375,0.12841796875,0.18359375,0.9560546875
16,1597652246139507,0.0438232421875,-0.1126708984375,-0.5919189453125,0.796875,4.75,-0.0625,3.1875,0.12548828125,0.1923828125,0.95458984375
17,1597652246162483,0.04449462890625,-0.1129150390625,-0.591552734375,0.79705810546875,4.6875,2.5625,1.3125,0.1435546875,0.19384765625,0.96484375
18,1597652246184141,0.04559326171875,-0.11279296875,-0.59112548828125,0.79736328125,5.1875,4.5625,2.25,0.12548828125,0.19775390625,0.9765625
19,1597652246199334,0.046630859375,-0.11212158203125,-0.590576171875,0.79779052734375,2.75,6.25,3.3125,0.11279296875,0.20654296875,0.9658203125
20,1597652246222553,0.0479736328125,-0.11181640625,-0.590087890625,0.798095703125,3.25,5.3125,2.6875,0.1064453125,0.234375,0.953125
21,1597652246244287,0.04864501953125,-0.111572265625,-0.58953857421875,0.79852294921875,1.125,3.75,3.375,0.11669921875,0.22265625,0.951171875
22,1597652246259128,0.05047607421875,-0.11102294921875,-0.5894775390625,0.79852294921875,6.0,8.8125,-1.0625,0.123046875,0.22314453125,0.986328125
23,1597652246282438,0.05206298828125,-0.109619140625,-0.58917236328125,0.798828125,4.0625,15.0,0.375,0.15478515625,0.19287109375,0.9794921875
24,1597652246304433,0.0545654296875,-0.10760498046875,-0.58892822265625,0.79913330078125,3.875,17.75,-0.125,0.10546875,0.2265625,0.9697265625
25,1597652246319067,0.05657958984375,-0.1058349609375,-0.58880615234375,0.79931640625,-1.25,11.6875,0.875,0.0498046875,0.271484375,0.9345703125
26,1597652246342440,0.05548095703125,-0.10479736328125,-0.5882568359375,0.7999267578125,-9.125,-0.8125,5.125,0.06201171875,0.212890625,0.923828125
27,1597652246364437,0.05499267578125,-0.10504150390625,-0.5880126953125,0.80010986328125,0.5625,0.625,1.25,0.15087890625,0.18505859375,0.97216796875
28,1597652246380452,0.05743408203125,-0.1048583984375,-0.5877685546875,0.80010986328125,10.6875,12.8125,-1.25,0.1533203125,0.21142578125,0.9755859375
29,1597652246401436,0.05889892578125,-0.10296630859375,-0.58734130859375,0.80059814453125,-3.0625,11.875,2.875,0.06396484375,0.25927734375,0.943359375
30,1597652246424567,0.05694580078125,-0.100830078125,-0.58721923828125,0.80108642578125,-19.125,0.9375,3.4375,0.048828125,0.24169921875,0.93603515625
31,1597652246438594,0.053955078125,-0.09918212890625,-0.58740234375,0.8013916015625,-16.0625,-2.1875,1.1875,0.09326171875,0.14306640625,0.92919921875
32,1597652246462432,0.05487060546875,-0.09912109375,-0.58758544921875,0.8011474609375,7.375,7.875,-3.6875,0.1669921875,0.1591796875,0.998046875
33,1597652246484731,0.0595703125,-0.09918212890625,-0.5875244140625,0.8009033203125,16.25,16.5,-2.875,0.1025390625,0.29296875,0.96875
34,1597652246505742,0.06048583984375,-0.09735107421875,-0.58746337890625,0.80108642578125,-6.75,7.8125,0.9375,0.0283203125,0.27734375,0.94921875
35,1597652246522407,0.0577392578125,-0.09527587890625,-0.58746337890625,0.80157470703125,-14.9375,2.5,1.5,0.1123046875,0.1298828125,0.96044921875
36,1597652246544737,0.05908203125,-0.09423828125,-0.5869140625,0.802001953125,6.3125,12.125,2.125,0.11962890625,0.15380859375,0.98828125
37,1597652246565731,0.06231689453125,-0.09375,-0.5870361328125,0.80169677734375,11.6875,9.75,-2.625,0.029296875,0.23193359375,0.96826171875
38,1597652246581641,0.06280517578125,-0.09320068359375,-0.58709716796875,0.8016357421875,-1.25,2.5,-0.75,0.05322265625,0.23583984375,0.97412109375
39,1597652246604656,0.06146240234375,-0.091796875,-0.58758544921875,0.80157470703125,-9.5,0.875,-1.9375,0.05908203125,0.17626953125,0.96923828125
40,1597652246618661,0.06170654296875,-0.09112548828125,-0.58758544921875,0.8016357421875,1.5625,6.875,-1.25,0.11865234375,0.16943359375,0.97216796875
41,1597652246641640,0.06317138671875,-0.08929443359375,-0.58837890625,0.8011474609375,-1.3125,10.5,-6.0625,0.033203125,0.22607421875,0.9716796875
42,1597652246664648,0.06390380859375,-0.0882568359375,-0.58917236328125,0.80059814453125,1.125,2.75,-5.5,0.0078125,0.1748046875,0.93359375
43,1597652246685841,0.0633544921875,-0.087890625,-0.58984375,0.8001708984375,-4.875,-0.4375,-4.625,0.06787109375,0.21630859375,0.9697265625
44,1597652246701642,0.062255859375,-0.08673095703125,-0.59039306640625,0.79998779296875,-7.0,1.9375,-3.375,0.07666015625,0.16845703125,0.97412109375
45,1597652246724649,0.0626220703125,-0.08636474609375,-0.59075927734375,0.79974365234375,0.0,2.5,-2.5625,0.05859375,0.203125,0.96435546875
46,1597652246745661,0.06219482421875,-0.08575439453125,-0.59112548828125,0.799560546875,-4.5625,-0.3125,-2.1875,0.0400390625,0.2041015625,0.95703125
47,1597652246761844,0.06121826171875,-0.08575439453125,-0.59100341796875,0.79974365234375,-2.8125,-1.25,1.0625,0.09423828125,0.17431640625,0.97607421875
48,1597652246784644,0.0614013671875,-0.085205078125,-0.59088134765625,0.7999267578125,1.1875,5.0,0.5,0.08984375,0.16943359375,0.99365234375
49,1597652246806022,0.06158447265625,-0.083984375,-0.5904541015625,0.80029296875,-1.0625,5.6875,2.75,0.04833984375,0.16259765625,0.9580078125
50,1597652246822732,0.06219482421875,-0.0836181640625,-0.5902099609375,0.80047607421875,0.0625,1.3125,1.8125,0.017578125,0.2158203125,0.9658203125
51,1597652246844622,0.06231689453125,-0.083740234375,-0.58990478515625,0.80072021484375,-0.4375,1.125,2.0625,0.07861328125,0.2197265625,0.9853515625
52,1597652246865651,0.06219482421875,-0.082763671875,-0.58978271484375,0.8009033203125,-4.375,5.1875,0.5625,0.0712890625,0.203125,0.96728515625
53,1597652246881852,0.0618896484375,-0.08172607421875,-0.58990478515625,0.8009033203125,-6.25,1.4375,-0.1875,0.02294921875,0.20654296875,0.9453125
54,1597652246904861,0.060546875,-0.08233642578125,-0.58978271484375,0.80108642578125,-4.0,-8.0,2.375,0.046875,0.18505859375,0.94482421875
55,1597652246925857,0.05950927734375,-0.0843505859375,-0.5892333984375,0.80133056640625,3.5625,-9.375,3.75,0.11279296875,0.1767578125,0.99658203125
56,1597652246941864,0.0606689453125,-0.0850830078125,-0.58892822265625,0.8013916015625,5.5625,4.5625,0.5,0.11865234375,0.2333984375,0.990234375
57,1597652246964873,0.06060791015625,-0.08392333984375,-0.58905029296875,0.8013916015625,-5.625,2.3125,-0.25,0.02197265625,0.2119140625,0.9599609375
58,1597652246986076,0.06005859375,-0.0841064453125,-0.58892822265625,0.801513671875,-0.375,-4.75,1.5625,0.03173828125,0.1591796875,0.935546875
59,1597652247002057,0.06060791015625,-0.0855712890625,-0.588134765625,0.80194091796875,9.3125,-0.125,4.25,0.13037109375,0.18212890625,1.0068359375
60,1597652247024861,0.06268310546875,-0.08544921875,-0.5877685546875,0.80206298828125,8.6875,7.0625,1.125,0.0546875,0.21240234375,0.99755859375
61,1597652247045851,0.06378173828125,-0.08544921875,-0.58758544921875,0.8021240234375,1.0,-0.4375,1.6875,0.00048828125,0.2568359375,0.95654296875
62,1597652247061935,0.0623779296875,-0.08599853515625,-0.587646484375,0.80206298828125,-4.125,-7.0625,0.25,0.06982421875,0.19384765625,0.97314453125
63,1597652247084625,0.06195068359375,-0.0867919921875,-0.58758544921875,0.8021240234375,2.5,-1.3125,0.25,0.1181640625,0.1748046875,0.97998046875
64,1597652247106130,0.0635986328125,-0.08673095703125,-0.58746337890625,0.80206298828125,5.9375,5.875,-0.5,0.06494140625,0.2275390625,0.97265625
65,1597652247122065,0.0640869140625,-0.085693359375,-0.5875244140625,0.8021240234375,-1.25,4.625,-0.4375,0.03271484375,0.1923828125,0.94140625
66,1597652247144939,0.06317138671875,-0.08465576171875,-0.58795166015625,0.80194091796875,-7.125,-1.875,-1.9375,0.01025390625,0.1865234375,0.96435546875
67,1597652247166938,0.06201171875,-0.08544921875,-0.5887451171875,0.8013916015625,-2.0,-9.6875,-4.25,0.0380859375,0.18115234375,0.94287109375
68,1597652247182077,0.060546875,-0.087158203125,-0.589599609375,0.8006591796875,-1.9375,-13.5625,-5.125,0.0673828125,0.20751953125,0.953125
69,1597652247204942,0.0582275390625,-0.08843994140625,-0.59039306640625,0.80010986328125,-6.5625,-12.5625,-4.4375,0.09423828125,0.1923828125,0.96240234375
70,1597652247226936,0.05645751953125,-0.08953857421875,-0.591064453125,0.79962158203125,-3.0625,-11.9375,-3.3125,0.07080078125,0.16796875,0.9501953125
71,1597652247241103,0.0557861328125,-0.09136962890625,-0.59149169921875,0.79913330078125,3.1875,-10.4375,-3.0625,0.087890625,0.189453125,0.96826171875
72,1597652247266089,0.05438232421875,-0.0931396484375,-0.59185791015625,0.79876708984375,-1.375,-12.875,-1.5,0.08837890625,0.20849609375,0.96728515625
73,1597652247287267,0.05120849609375,-0.09417724609375,-0.59185791015625,0.79888916015625,-10.1875,-14.9375,2.1875,0.09423828125,0.1748046875,0.94775390625
74,1597652247301252,0.04815673828125,-0.09515380859375,-0.59173583984375,0.79901123046875,-6.75,-14.6875,2.5,0.0947265625,0.1337890625,0.97900390625
75,1597652247324537,0.046875,-0.09716796875,-0.5914306640625,0.799072265625,2.4375,-14.0625,2.75,0.08837890625,0.16748046875,0.97216796875
76,1597652247347081,0.046875,-0.10003662109375,-0.59149169921875,0.7987060546875,7.8125,-15.3125,0.0625,0.07373046875,0.21923828125,0.95361328125
77,1597652247361327,0.04547119140625,-0.1026611328125,-0.59149169921875,0.7984619140625,0.5625,-16.9375,0.75,0.10888671875,0.220703125,0.9697265625
78,1597652247384333,0.0430908203125,-0.1044921875,-0.59130859375,0.7984619140625,-2.25,-14.3125,1.9375,0.140625,0.14306640625,0.92626953125
79,1597652247407563,0.04156494140625,-0.10699462890625,-0.5908203125,0.798583984375,3.0625,-14.875,3.6875,0.1484375,0.18115234375,0.9931640625
80,1597652247421340,0.0413818359375,-0.10870361328125,-0.5904541015625,0.79864501953125,5.4375,-7.125,1.875,0.13720703125,0.1865234375,0.9580078125
81,1597652247444328,0.0435791015625,-0.1107177734375,-0.59014892578125,0.7984619140625,13.25,-0.9375,0.1875,0.14013671875,0.2587890625,0.9912109375
82,1597652247467460,0.04425048828125,-0.11083984375,-0.58984375,0.79864501953125,2.125,1.9375,1.8125,0.12744140625,0.2158203125,0.94677734375
83,1597652247481063,0.0419921875,-0.1107177734375,-0.58892822265625,0.7994384765625,-12.25,-6.875,8.625,0.111328125,0.21826171875,0.9443359375
84,1597652247504912,0.040283203125,-0.11041259765625,-0.587890625,0.80035400390625,-6.125,-3.125,8.3125,0.14208984375,0.16259765625,0.986328125
85,1597652247527057,0.0399169921875,-0.110595703125,-0.5870361328125,0.80096435546875,2.3125,-0.3125,5.5625,0.14306640625,0.14501953125,0.943359375
86,1597652247541152,0.0416259765625,-0.11187744140625,-0.58612060546875,0.80133056640625,10.125,0.1875,5.125,0.126953125,0.23095703125,0.974609375
87,1597652247564915,0.0426025390625,-0.11212158203125,-0.585693359375,0.8016357421875,2.875,-0.875,3.5,0.08154296875,0.23779296875,0.96484375
88,1597652247586913,0.0413818359375,-0.11175537109375,-0.58538818359375,0.80194091796875,-7.0,-3.1875,3.25,0.1123046875,0.19970703125,0.96337890625
89,1597652247607900,0.03912353515625,-0.11138916015625,-0.5848388671875,0.802490234375,-9.5,-5.25,5.3125,0.13330078125,0.15673828125,0.927734375
90,1597652247624916,0.03863525390625,-0.1123046875,-0.58416748046875,0.8028564453125,1.125,-4.375,4.625,0.1484375,0.19482421875,0.97998046875
91,1597652247646901,0.0386962890625,-0.112548828125,-0.583740234375,0.80316162109375,1.125,-1.0,3.0,0.13232421875,0.1923828125,0.96826171875
92,1597652247667931,0.03790283203125,-0.1126708984375,-0.58349609375,0.8033447265625,-3.125,-2.625,2.4375,0.13818359375,0.19140625,0.9619140625
93,1597652247684905,0.0372314453125,-0.1129150390625,-0.58319091796875,0.8035888671875,-2.8125,-2.5625,2.3125,0.15087890625,0.19921875,0.9619140625
94,1597652247707410,0.0377197265625,-0.114013671875,-0.5828857421875,0.80364990234375,2.125,-2.625,2.1875,0.14697265625,0.2490234375,0.97705078125
95,1597652247728178,0.0362548828125,-0.11419677734375,-0.5826416015625,0.8038330078125,-6.75,-4.0625,2.25,0.162109375,0.19921875,0.9501953125
96,1597652247744903,0.03472900390625,-0.1136474609375,-0.58282470703125,0.8038330078125,-7.75,-0.875,-0.4375,0.16650390625,0.17138671875,0.98046875
97,1597652247766909,0.03497314453125,-0.1134033203125,-0.58306884765625,0.8037109375,1.375,2.3125,-2.0625,0.150390625,0.17431640625,0.974609375
98,1597652247787641,0.03619384765625,-0.114013671875,-0.5836181640625,0.80316162109375,5.8125,0.6875,-4.75,0.1376953125,0.208984375,0.9638671875
99,1597652247804101,0.0341796875,-0.11480712890625,-0.58367919921875,0.8031005859375,-6.1875,-9.4375,0.8125,0.15234375,0.1748046875,0.9306640625
