index,timestamp,orientation_x,orientation_y,orientation_z,orientation_w,gyroscope_x,gyroscope_y,gyroscope_z,acceleration_x,acceleration_y,acceleration_z
0,1596983945700904,0.0206298828125,0.0853271484375,0.65057373046875,0.7542724609375,-0.375,-0.125,-0.875,-0.1025390625,0.15185546875,0.97314453125
1,1596983945723903,0.0206298828125,0.08538818359375,0.65057373046875,0.7542724609375,-0.1875,-0.25,-0.875,-0.10205078125,0.1484375,0.9794921875
2,1596983945743905,0.02001953125,0.0849609375,0.65032958984375,0.75457763671875,-3.375,0.4375,-2.3125,-0.1005859375,0.12890625,0.9677734375
3,1596983945761908,0.019287109375,0.08465576171875,0.650146484375,0.7547607421875,-3.125,0.75,-1.4375,-0.1103515625,0.11767578125,0.9716796875
4,1596983945783904,0.01947021484375,0.0848388671875,0.64990234375,0.75494384765625,1.875,-0.75,-1.6875,-0.109375,0.1318359375,0.966796875
5,1596983945803912,0.0201416015625,0.085205078125,0.64959716796875,0.755126953125,3.5625,-0.5,-2.0625,-0.09619140625,0.1513671875,0.97509765625
6,1596983945820903,0.02044677734375,0.08526611328125,0.6494140625,0.75531005859375,0.5625,-1.125,-1.375,-0.1005859375,0.154296875,0.9716796875
7,1596983945843904,0.02044677734375,0.085205078125,0.6494140625,0.75531005859375,-0.25,-0.75,-0.5625,-0.09375,0.1376953125,0.9775390625
8,1596983945864907,0.02044677734375,0.085205078125,0.6494140625,0.75531005859375,0.9375,-0.125,-0.5,-0.0947265625,0.12841796875,0.9765625
9,1596983945880906,0.02081298828125,0.08575439453125,0.6492919921875,0.75537109375,4.3125,0.5,-0.5625,-0.10791015625,0.13525390625,0.9873046875
10,1596983945903907,0.02154541015625,0.08660888671875,0.64923095703125,0.7552490234375,7.3125,0.6875,0.5625,-0.111328125,0.13037109375,0.98974609375
11,1596983945924904,0.02264404296875,0.08746337890625,0.6492919921875,0.755126953125,8.0625,-0.25,1.0625,-0.099609375,0.1455078125,0.96923828125
12,1596983945942905,0.0244140625,0.08892822265625,0.6492919921875,0.7548828125,12.3125,0.125,1.5,-0.1005859375,0.16162109375,0.98388671875
13,1596983945963907,0.02508544921875,0.0894775390625,0.649169921875,0.7548828125,3.375,-1.6875,-0.1875,-0.1201171875,0.17724609375,0.9677734375
14,1596983945984912,0.02520751953125,0.08905029296875,0.649169921875,0.75494384765625,-1.9375,-2.8125,-0.25,-0.107421875,0.16064453125,0.95458984375
15,1596983946000903,0.02490234375,0.0882568359375,0.64935302734375,0.7548828125,-2.9375,-3.125,1.25,-0.10888671875,0.12255859375,0.9404296875
16,1596983946023905,0.024658203125,0.08746337890625,0.649658203125,0.75469970703125,-1.1875,-2.1875,2.25,-0.09423828125,0.1083984375,0.982421875
17,1596983946044905,0.02508544921875,0.08746337890625,0.6500244140625,0.75439453125,2.5,-0.5625,2.9375,-0.09130859375,0.13818359375,0.998046875
18,1596983946060904,0.025634765625,0.0880126953125,0.650390625,0.7540283203125,4.4375,1.125,2.9375,-0.095703125,0.16064453125,1.02880859375
19,1596983946083904,0.02532958984375,0.087890625,0.6507568359375,0.753662109375,-2.6875,0.0,2.8125,-0.109375,0.1552734375,0.9619140625
20,1596983946104907,0.0245361328125,0.0870361328125,0.65118408203125,0.75347900390625,-6.9375,-1.5625,2.5,-0.10986328125,0.1494140625,0.94921875
21,1596983946120904,0.0240478515625,0.08642578125,0.6514892578125,0.7532958984375,-3.25,0.75,1.75,-0.0810546875,0.1318359375,1.0068359375
22,1596983946143903,0.02386474609375,0.08673095703125,0.65179443359375,0.75299072265625,1.625,2.9375,2.25,-0.0927734375,0.1328125,1.01123046875
23,1596983946164906,0.0234375,0.0870361328125,0.65234375,0.75250244140625,-0.125,3.3125,4.125,-0.09326171875,0.13623046875,0.96875
24,1596983946180905,0.02386474609375,0.08782958984375,0.65289306640625,0.75189208984375,2.9375,3.0625,4.4375,-0.0908203125,0.173828125,0.9892578125
25,1596983946203921,0.0235595703125,0.08831787109375,0.6533203125,0.75146484375,0.125,2.875,2.875,-0.10791015625,0.15185546875,0.96044921875
26,1596983946224902,0.02197265625,0.087890625,0.654052734375,0.75091552734375,-7.0,3.5625,4.875,-0.1142578125,0.1123046875,0.93505859375
27,1596983946240907,0.02191162109375,0.088134765625,0.65460205078125,0.75042724609375,2.0625,1.875,4.5,-0.09619140625,0.12060546875,0.95654296875
28,1596983946263906,0.02392578125,0.09033203125,0.65460205078125,0.7501220703125,17.4375,3.5625,1.6875,-0.083984375,0.15380859375,1.0126953125
29,1596983946286916,0.02581787109375,0.09320068359375,0.6546630859375,0.7496337890625,18.125,8.0,2.0625,-0.076171875,0.17724609375,1.0341796875
30,1596983946300904,0.026123046875,0.0953369140625,0.6552734375,0.74884033203125,5.8125,9.5625,5.0,-0.09912109375,0.2177734375,1.013671875
31,1596983946325914,0.02410888671875,0.09576416015625,0.6563720703125,0.7479248046875,-10.1875,9.625,6.5625,-0.12060546875,0.203125,1.00634765625
32,1596983946345906,0.0206298828125,0.09466552734375,0.65740966796875,0.7471923828125,-16.6875,7.5625,6.0,-0.13330078125,0.1162109375,0.9833984375
33,1596983946365905,0.017578125,0.09344482421875,0.6583251953125,0.74664306640625,-12.875,4.9375,5.1875,-0.1376953125,0.06787109375,0.95361328125
34,1596983946383908,0.01654052734375,0.09393310546875,0.65850830078125,0.7464599609375,1.9375,4.3125,1.875,-0.14208984375,0.078125,0.9609375
35,1596983946406941,0.01666259765625,0.0955810546875,0.657958984375,0.7467041015625,9.3125,3.1875,-2.75,-0.1640625,0.109375,0.93798828125
36,1596983946425903,0.01678466796875,0.0965576171875,0.65692138671875,0.74749755859375,4.625,0.625,-6.875,-0.15283203125,0.1455078125,0.94677734375
37,1596983946443907,0.01776123046875,0.09710693359375,0.65478515625,0.749267578125,4.3125,-2.1875,-15.8125,-0.1201171875,0.20068359375,1.00244140625
38,1596983946466907,0.01739501953125,0.09613037109375,0.65185546875,0.751953125,-5.3125,-2.75,-23.3125,-0.10400390625,0.185546875,1.0478515625
39,1596983946486904,0.01654052734375,0.09326171875,0.64874267578125,0.75506591796875,-17.5,-10.375,-25.9375,-0.11328125,0.21826171875,1.0498046875
40,1596983946503904,0.0147705078125,0.08892822265625,0.6453857421875,0.7584228515625,-29.0625,-13.1875,-28.5,-0.103515625,0.236328125,0.99609375
41,1596983946526904,0.01055908203125,0.0809326171875,0.6424560546875,0.76190185546875,-48.75,-24.75,-27.125,-0.1337890625,0.1201171875,0.75390625
42,1596983946545904,0.0086669921875,0.073974609375,0.639404296875,0.76519775390625,-24.3125,-29.0,-24.25,-0.1357421875,-0.04248046875,0.728515625
43,1596983946562904,0.012939453125,0.07379150390625,0.63665771484375,0.7674560546875,29.375,-16.875,-17.6875,-0.06982421875,-0.0517578125,0.84326171875
44,1596983946585907,0.02325439453125,0.08001708984375,0.63421630859375,0.76861572265625,62.125,-7.375,-12.375,-0.03955078125,0.2314453125,0.95849609375
45,1596983946606904,0.02911376953125,0.084228515625,0.6329345703125,0.76898193359375,23.75,-2.1875,-6.5,-0.08349609375,0.4091796875,0.9921875
46,1596983946622904,0.02618408203125,0.0810546875,0.633544921875,0.7689208984375,-31.625,-3.0625,1.3125,-0.08642578125,0.2431640625,0.9921875
47,1596983946645904,0.0216064453125,0.07623291015625,0.63458251953125,0.76873779296875,-31.5625,-3.375,4.375,-0.07763671875,0.03271484375,0.99072265625
48,1596983946666903,0.02044677734375,0.0748291015625,0.63494873046875,0.7685546875,-2.25,-0.4375,2.4375,-0.076171875,0.01806640625,1.03857421875
49,1596983946682913,0.02264404296875,0.07684326171875,0.6346435546875,0.76861572265625,18.875,1.0625,-0.875,-0.0888671875,0.1123046875,1.04296875
50,1596983946705903,0.02459716796875,0.078369140625,0.63433837890625,0.76861572265625,10.0625,0.0,-1.0,-0.09130859375,0.2060546875,1.05029296875
51,1596983946726907,0.0244140625,0.07818603515625,0.63433837890625,0.7686767578125,-3.9375,-0.375,-0.6875,-0.09326171875,0.1806640625,1.0322265625
52,1596983946742904,0.0233154296875,0.07733154296875,0.63433837890625,0.76873779296875,-7.75,1.0625,-0.625,-0.08203125,0.1318359375,1.02587890625
53,1596983946765904,0.0225830078125,0.0775146484375,0.63421630859375,0.76885986328125,-0.9375,4.25,-1.25,-0.0810546875,0.115234375,1.03076171875
54,1596983946786904,0.02252197265625,0.0784912109375,0.63409423828125,0.76885986328125,3.875,4.625,-1.0,-0.091796875,0.1298828125,1.0078125
55,1596983946802906,0.0228271484375,0.07965087890625,0.634033203125,0.768798828125,5.4375,4.5625,-0.125,-0.087890625,0.138671875,0.9892578125
56,1596983946825903,0.02301025390625,0.080810546875,0.63397216796875,0.76873779296875,3.75,5.25,-0.125,-0.0830078125,0.15478515625,0.99169921875
57,1596983946846904,0.022705078125,0.081787109375,0.63397216796875,0.76861572265625,1.875,6.1875,0.125,-0.08642578125,0.1455078125,0.97509765625
58,1596983946863906,0.022216796875,0.0828857421875,0.634033203125,0.7684326171875,1.3125,6.5,0.3125,-0.09814453125,0.14208984375,0.96533203125
59,1596983946885904,0.02154541015625,0.0836181640625,0.63421630859375,0.768310546875,-0.125,6.0,0.75,-0.09521484375,0.13037109375,0.966796875
60,1596983946906903,0.0211181640625,0.08465576171875,0.63427734375,0.76812744140625,1.8125,6.0625,0.75,-0.103515625,0.13623046875,0.9580078125
61,1596983946922904,0.02069091796875,0.08563232421875,0.63446044921875,0.76788330078125,2.1875,5.5625,1.4375,-0.107421875,0.12939453125,0.9619140625
62,1596983946945907,0.02044677734375,0.0865478515625,0.63458251953125,0.76763916015625,2.1875,4.8125,0.9375,-0.11083984375,0.13671875,0.9658203125
63,1596983946966903,0.020263671875,0.08734130859375,0.63470458984375,0.76751708984375,2.0625,4.0625,0.875,-0.1083984375,0.13818359375,0.96630859375
64,1596983946982905,0.0198974609375,0.08782958984375,0.6348876953125,0.76727294921875,0.4375,2.625,1.625,-0.11865234375,0.1328125,0.94287109375
65,1596983947005903,0.02001953125,0.08856201171875,0.635009765625,0.76708984375,3.1875,2.5625,1.3125,-0.1123046875,0.1318359375,0.95166015625
66,1596983947026906,0.02008056640625,0.08917236328125,0.6351318359375,0.76690673828125,2.75,2.0,1.1875,-0.11767578125,0.13671875,0.95947265625
67,1596983947042903,0.02020263671875,0.08978271484375,0.63519287109375,0.76678466796875,2.6875,1.4375,0.75,-0.12255859375,0.1416015625,0.96875
68,1596983947065906,0.02001953125,0.090087890625,0.63531494140625,0.76666259765625,0.5,1.0625,0.8125,-0.123046875,0.14013671875,0.958984375
69,1596983947086906,0.02001953125,0.090087890625,0.63531494140625,0.76666259765625,0.0625,0.375,0.9375,-0.119140625,0.13037109375,0.95849609375
70,1596983947102902,0.02001953125,0.0902099609375,0.6353759765625,0.7666015625,1.25,0.0,0.75,-0.11865234375,0.13134765625,0.96142578125
71,1596983947125903,0.02020263671875,0.09051513671875,0.635498046875,0.7664794921875,1.9375,-0.25,1.25,-0.12646484375,0.1455078125,0.97314453125
72,1596983947146903,0.02020263671875,0.090576171875,0.63568115234375,0.76629638671875,-0.375,-0.5,1.4375,-0.12548828125,0.14794921875,0.97900390625
73,1596983947163905,0.02008056640625,0.09014892578125,0.63592529296875,0.76617431640625,-1.4375,-1.375,1.5,-0.11328125,0.13720703125,0.9775390625
74,1596983947185903,0.02008056640625,0.08978271484375,0.63604736328125,0.76605224609375,-0.5625,-2.4375,1.1875,-0.1201171875,0.13037109375,0.9697265625
75,1596983947207904,0.0203857421875,0.08966064453125,0.63616943359375,0.7659912109375,1.3125,-1.8125,1.25,-0.11376953125,0.13720703125,0.97705078125
76,1596983947222903,0.02081298828125,0.08966064453125,0.63623046875,0.76593017578125,1.1875,-1.0,0.5,-0.10693359375,0.1552734375,0.9853515625
77,1596983947245904,0.02081298828125,0.0894775390625,0.63641357421875,0.76580810546875,-1.1875,-0.4375,1.0,-0.10693359375,0.1513671875,0.978515625
78,1596983947267903,0.0206298828125,0.0892333984375,0.6365966796875,0.76568603515625,-2.1875,-0.4375,1.3125,-0.109375,0.14453125,0.9736328125
79,1596983947282905,0.02044677734375,0.08892822265625,0.63677978515625,0.76556396484375,-1.25,-0.625,1.0,-0.1103515625,0.1376953125,0.97314453125
80,1596983947305905,0.02032470703125,0.08868408203125,0.636962890625,0.76544189453125,-0.5,-0.4375,1.1875,-0.107421875,0.125,0.9775390625
81,1596983947327902,0.02069091796875,0.0888671875,0.6370849609375,0.76531982421875,2.1875,-0.3125,1.1875,-0.10595703125,0.142578125,0.97998046875
82,1596983947350905,0.02093505859375,0.08917236328125,0.63720703125,0.76519775390625,1.75,0.4375,0.875,-0.11181640625,0.15478515625,0.98876953125
83,1596983947365904,0.02093505859375,0.08917236328125,0.6373291015625,0.76507568359375,-0.3125,0.1875,1.0,-0.10888671875,0.14892578125,0.98046875
84,1596983947387903,0.02093505859375,0.08917236328125,0.6373291015625,0.76507568359375,-0.75,-0.25,0.9375,-0.11083984375,0.1435546875,0.96875
85,1596983947402915,0.02093505859375,0.08917236328125,0.6373291015625,0.76507568359375,-0.75,-0.6875,0.3125,-0.1044921875,0.13916015625,0.97607421875
86,1596983947425902,0.02093505859375,0.08917236328125,0.6373291015625,0.76507568359375,0.25,-0.25,0.0625,-0.10546875,0.13671875,0.98046875
87,1596983947447905,0.02099609375,0.08917236328125,0.6373291015625,0.76507568359375,0.4375,-0.25,0.3125,-0.109375,0.154296875,0.982421875
88,1596983947468904,0.02099609375,0.08917236328125,0.6373291015625,0.76507568359375,-0.5,0.0,0.25,-0.109375,0.1494140625,0.97509765625
89,1596983947485903,0.02081298828125,0.089111328125,0.6373291015625,0.76507568359375,-1.4375,0.3125,-0.125,-0.10693359375,0.150390625,0.9736328125
90,1596983947507903,0.02056884765625,0.0889892578125,0.63726806640625,0.76513671875,-1.6875,0.25,-0.5625,-0.11083984375,0.14697265625,0.9697265625
91,1596983947521907,0.02020263671875,0.08880615234375,0.6373291015625,0.76513671875,-2.25,0.25,-0.1875,-0.111328125,0.14111328125,0.98046875
92,1596983947545903,0.02001953125,0.08868408203125,0.6373291015625,0.76513671875,-1.375,0.25,0.1875,-0.109375,0.14111328125,0.97998046875
93,1596983947567906,0.01971435546875,0.08843994140625,0.63739013671875,0.76513671875,-1.9375,0.0625,0.1875,-0.1103515625,0.1376953125,0.9794921875
94,1596983947581904,0.0196533203125,0.08843994140625,0.63739013671875,0.76513671875,-0.3125,0.75,-0.125,-0.11083984375,0.1279296875,0.97216796875
95,1596983947605903,0.0196533203125,0.08843994140625,0.63739013671875,0.76513671875,0.625,0.5625,-0.25,-0.111328125,0.142578125,0.98046875
96,1596983947627903,0.0196533203125,0.08843994140625,0.63739013671875,0.76513671875,-0.125,0.0,0.0,-0.11279296875,0.14697265625,0.97412109375
97,1596983947641903,0.0196533203125,0.08843994140625,0.63739013671875,0.76513671875,-1.0,-0.0625,0.125,-0.111328125,0.1396484375,0.97705078125
98,1596983947665999,0.0196533203125,0.08843994140625,0.63739013671875,0.76513671875,0.3125,-0.1875,0.125,-0.10693359375,0.13720703125,0.9755859375
99,1596983947687903,0.0196533203125,0.08837890625,0.63739013671875,0.76513671875,-0.25,0.0,-0.125,-0.1103515625,0.13427734375,0.97802734375
100,1596983947708903,0.0196533203125,0.08837890625,0.63739013671875,0.76513671875,-0.25,0.125,-0.3125,-0.1103515625,0.1396484375,0.97900390625
