index,timestamp,orientation_x,orientation_y,orientation_z,orientation_w,gyroscope_x,gyroscope_y,gyroscope_z,acceleration_x,acceleration_y,acceleration_z
0,1597982191653778,0.01708984375,-0.53533935546875,0.68048095703125,0.5,-5.375,13.875,-26.3125,0.50341796875,-1.19189453125,0.51220703125
1,1597982191667779,0.01898193359375,-0.52740478515625,0.68609619140625,0.500732421875,59.75,16.9375,-3.75,0.52734375,-0.93603515625,0.45849609375
2,1597982191690775,0.02239990234375,-0.51727294921875,0.69366455078125,0.500732421875,73.5,16.3125,8.75,0.50634765625,-0.67578125,0.427734375
3,1597982191713317,0.02520751953125,-0.51116943359375,0.697998046875,0.5008544921875,41.875,7.125,6.6875,0.49072265625,-0.52001953125,0.4248046875
4,1597982191728320,0.028076171875,-0.5106201171875,0.6978759765625,0.50140380859375,8.875,-3.8125,-3.25,0.556640625,-0.4951171875,0.3701171875
5,1597982191751317,0.03009033203125,-0.51397705078125,0.69500732421875,0.50177001953125,-16.375,-11.4375,-6.875,0.634765625,-0.56201171875,0.39111328125
6,1597982191773314,0.0316162109375,-0.51751708984375,0.69219970703125,0.50201416015625,-17.4375,-10.6875,-5.8125,0.6845703125,-0.654296875,0.42724609375
7,1597982191788322,0.033935546875,-0.51751708984375,0.6920166015625,0.5020751953125,6.5625,-5.125,-2.5625,0.69189453125,-0.70068359375,0.4638671875
8,1597982191811333,0.03753662109375,-0.513916015625,0.6943359375,0.5023193359375,29.25,-0.5625,0.125,0.6689453125,-0.6552734375,0.50146484375
9,1597982191833313,0.04071044921875,-0.51043701171875,0.69683837890625,0.502197265625,27.0,-1.8125,2.875,0.6220703125,-0.5986328125,0.4951171875
10,1597982191854316,0.04180908203125,-0.51019287109375,0.697509765625,0.50146484375,3.6875,-5.5,4.75,0.58837890625,-0.61474609375,0.4892578125
11,1597982191871323,0.04119873046875,-0.51220703125,0.69677734375,0.5003662109375,-13.5625,-7.5625,5.5,0.5859375,-0.66748046875,0.5029296875
12,1597982191893320,0.03973388671875,-0.5142822265625,0.6962890625,0.49908447265625,-13.6875,-5.0,7.25,0.578125,-0.7216796875,0.50048828125
13,1597982191914322,0.038330078125,-0.514892578125,0.697021484375,0.49755859375,-4.4375,-2.5625,10.0,0.55615234375,-0.7275390625,0.51171875
14,1597982191931323,0.0374755859375,-0.51470947265625,0.69830322265625,0.4959716796875,2.375,-2.0,10.1875,0.53515625,-0.7060546875,0.484375
15,1597982191953317,0.03643798828125,-0.51446533203125,0.69921875,0.49493408203125,0.25,0.0625,7.875,0.5283203125,-0.6923828125,0.4873046875
16,1597982191968323,0.03509521484375,-0.5152587890625,0.69927978515625,0.4942626953125,-6.9375,-0.1875,5.1875,0.52880859375,-0.69775390625,0.47607421875
17,1597982191991401,0.03302001953125,-0.51641845703125,0.6990966796875,0.493408203125,-9.625,0.8125,5.4375,0.54052734375,-0.767578125,0.48974609375
18,1597982192013505,0.0321044921875,-0.51690673828125,0.69927978515625,0.49261474609375,-4.5625,-0.75,6.25,0.56787109375,-0.716796875,0.49609375
19,1597982192027507,0.03033447265625,-0.5167236328125,0.70074462890625,0.4908447265625,1.3125,3.125,16.0,0.59716796875,-0.7646484375,0.49072265625
20,1597982192050506,0.028564453125,-0.515380859375,0.70330810546875,0.48876953125,9.25,6.1875,21.3125,0.59228515625,-0.740234375,0.47705078125
21,1597982192073507,0.02630615234375,-0.51361083984375,0.70660400390625,0.4859619140625,11.5625,7.9375,28.6875,0.61083984375,-0.74951171875,0.49169921875
22,1597982192094508,0.02276611328125,-0.51202392578125,0.71063232421875,0.48193359375,9.5,8.0625,37.8125,0.58837890625,-0.787109375,0.5166015625
23,1597982192110508,0.0162353515625,-0.51171875,0.71466064453125,0.47650146484375,0.125,15.625,52.875,0.572265625,-0.787109375,0.43505859375
24,1597982192133503,0.0113525390625,-0.50897216796875,0.7198486328125,0.47174072265625,16.4375,16.1875,47.875,0.50927734375,-0.73583984375,0.43212890625
25,1597982192154507,0.00494384765625,-0.50677490234375,0.7254638671875,0.46563720703125,14.0625,18.25,58.1875,0.5234375,-0.81103515625,0.42919921875
26,1597982192170511,-0.00067138671875,-0.50225830078125,0.73187255859375,0.46051025390625,22.0,22.375,57.9375,0.5068359375,-0.7138671875,0.4951171875
27,1597982192193503,-0.0074462890625,-0.4970703125,0.7379150390625,0.45635986328125,15.0,28.5,55.8125,0.439453125,-0.63818359375,0.552734375
28,1597982192214599,-0.017578125,-0.49859619140625,0.739501953125,0.45184326171875,-34.0625,23.6875,53.3125,0.34619140625,-0.56494140625,0.47607421875
29,1597982192230599,-0.03131103515625,-0.5087890625,0.73577880859375,0.44580078125,-90.125,12.1875,49.875,0.28271484375,-0.6943359375,0.43017578125
30,1597982192253592,-0.04632568359375,-0.52191162109375,0.7294921875,0.439697265625,-110.875,13.25,49.9375,0.35302734375,-0.9111328125,0.35888671875
31,1597982192274600,-0.05413818359375,-0.524169921875,0.72705078125,0.4400634765625,-43.875,29.4375,22.5625,0.4375,-0.6484375,0.48486328125
32,1597982192290599,-0.05364990234375,-0.5111083984375,0.73193359375,0.4473876953125,72.5625,47.3125,-22.5625,0.4541015625,-1.21630859375,0.7216796875
33,1597982192313592,-0.05059814453125,-0.49273681640625,0.73779296875,0.4586181640625,102.6875,64.125,-35.4375,0.35888671875,-0.69189453125,0.662109375
34,1597982192334598,-0.05035400390625,-0.4813232421875,0.7437744140625,0.4610595703125,56.6875,25.0,1.1875,0.0322265625,-0.32763671875,0.40869140625
35,1597982192350599,-0.05194091796875,-0.4886474609375,0.73944091796875,0.4600830078125,-62.75,-25.0,-9.75,0.02490234375,-0.24658203125,0.44580078125
36,1597982192373592,-0.05194091796875,-0.513671875,0.72210693359375,0.46044921875,-153.375,-58.5,-53.5,0.4150390625,-0.6279296875,0.2900390625
37,1597982192395590,-0.05023193359375,-0.529541015625,0.70733642578125,0.465576171875,-100.9375,-26.0625,-66.1875,0.8515625,-1.09130859375,0.4404296875
38,1597982192410594,-0.0439453125,-0.52972412109375,0.70648193359375,0.46722412109375,22.0625,-12.6875,-21.5625,0.7529296875,-1.16259765625,0.49365234375
39,1597982192433592,-0.036865234375,-0.521728515625,0.71307373046875,0.46685791015625,74.125,-6.25,3.6875,0.5703125,-0.88671875,0.46142578125
40,1597982192454598,-0.0325927734375,-0.51617431640625,0.71734619140625,0.466796875,42.875,-5.625,0.125,0.38525390625,-0.67822265625,0.4814453125
41,1597982192476598,-0.03155517578125,-0.51763916015625,0.716552734375,0.4664306640625,-9.0625,-14.3125,-8.6875,0.29052734375,-0.67333984375,0.466796875
42,1597982192501590,-0.0313720703125,-0.5235595703125,0.71246337890625,0.466064453125,-34.0625,-16.5,-12.625,0.47216796875,-0.87646484375,0.46826171875
43,1597982192515687,-0.03070068359375,-0.52557373046875,0.711181640625,0.46588134765625,-9.25,-7.625,-4.8125,0.5234375,-0.90576171875,0.5009765625
44,1597982192530682,-0.0303955078125,-0.5234375,0.71295166015625,0.465576171875,15.0,1.625,2.375,0.43310546875,-0.8447265625,0.4873046875
45,1597982192553762,-0.03033447265625,-0.5220947265625,0.714111328125,0.46527099609375,9.125,1.0,2.8125,0.388671875,-0.73974609375,0.43115234375
46,1597982192575759,-0.0306396484375,-0.522216796875,0.714111328125,0.46514892578125,-3.4375,-0.9375,0.25,0.40869140625,-0.74462890625,0.47265625
47,1597982192590766,-0.0313720703125,-0.52252197265625,0.7138671875,0.4652099609375,-4.3125,2.5,2.125,0.470703125,-0.80322265625,0.47216796875
48,1597982192613761,-0.0325927734375,-0.521728515625,0.7139892578125,0.4656982421875,-1.25,8.0625,2.9375,0.4560546875,-0.7744140625,0.48291015625
49,1597982192635761,-0.0335693359375,-0.5213623046875,0.71417236328125,0.46588134765625,-1.5625,4.9375,2.875,0.4208984375,-0.7431640625,0.45263671875
50,1597982192650785,-0.0343017578125,-0.5225830078125,0.713623046875,0.46527099609375,-8.625,-2.0,3.125,0.43115234375,-0.76806640625,0.44580078125
51,1597982192673760,-0.0341796875,-0.52398681640625,0.71295166015625,0.46466064453125,-6.5625,-4.1875,1.625,0.48046875,-0.8037109375,0.4404296875
52,1597982192695769,-0.03399658203125,-0.52471923828125,0.7125244140625,0.4644775390625,-3.25,-1.9375,0.75,0.48095703125,-0.798828125,0.4453125
53,1597982192710791,-0.03369140625,-0.524658203125,0.71246337890625,0.4647216796875,3.4375,2.0,-0.5625,0.4912109375,-0.81103515625,0.42236328125
54,1597982192733761,-0.03326416015625,-0.523681640625,0.7130126953125,0.4649658203125,5.5,2.4375,2.375,0.474609375,-0.74755859375,0.4541015625
55,1597982192755769,-0.03326416015625,-0.52374267578125,0.71319580078125,0.464599609375,-0.0625,-0.9375,2.9375,0.4453125,-0.7568359375,0.4404296875
56,1597982192770762,-0.0338134765625,-0.52484130859375,0.71282958984375,0.46392822265625,-6.5,-1.9375,4.0,0.4560546875,-0.787109375,0.4365234375
57,1597982192793761,-0.034423828125,-0.525634765625,0.71258544921875,0.46331787109375,-4.4375,-0.8125,2.6875,0.4404296875,-0.81201171875,0.439453125
58,1597982192815759,-0.03424072265625,-0.52520751953125,0.71295166015625,0.4632568359375,3.625,0.125,0.5625,0.44482421875,-0.79638671875,0.4501953125
59,1597982192830784,-0.03350830078125,-0.5242919921875,0.71356201171875,0.46343994140625,6.25,-0.375,-0.375,0.4404296875,-0.7548828125,0.45556640625
60,1597982192853760,-0.03314208984375,-0.52447509765625,0.71343994140625,0.4635009765625,-1.5625,-1.9375,-0.3125,0.44384765625,-0.74853515625,0.4521484375
61,1597982192875761,-0.0335693359375,-0.52587890625,0.7125244140625,0.4632568359375,-10.375,-2.375,0.3125,0.4482421875,-0.77587890625,0.4541015625
62,1597982192890787,-0.03411865234375,-0.5264892578125,0.7120361328125,0.4632568359375,-5.25,0.875,0.375,0.462890625,-0.81103515625,0.45751953125
63,1597982192920760,-0.034423828125,-0.52593994140625,0.71209716796875,0.4637451171875,1.1875,3.75,-1.125,0.4443359375,-0.8037109375,0.46435546875
64,1597982192937764,-0.0345458984375,-0.52557373046875,0.7120361328125,0.4642333984375,0.375,2.375,-1.9375,0.435546875,-0.78857421875,0.4599609375
65,1597982192950789,-0.03485107421875,-0.5257568359375,0.711669921875,0.464599609375,-3.75,1.1875,-1.875,0.4365234375,-0.78466796875,0.4638671875
66,1597982192973764,-0.03521728515625,-0.52630615234375,0.71099853515625,0.4649658203125,-4.875,0.75,-2.875,0.44140625,-0.8056640625,0.45703125
67,1597982192995768,-0.03515625,-0.526123046875,0.71087646484375,0.46539306640625,-0.3125,1.0,-2.4375,0.44287109375,-0.7900390625,0.46435546875
68,1597982193017767,-0.034912109375,-0.52587890625,0.71099853515625,0.4654541015625,2.125,-0.3125,-1.125,0.4423828125,-0.7958984375,0.447265625
69,1597982193019775,-0.03485107421875,-0.52587890625,0.71099853515625,0.46551513671875,0.1875,0.75,0.3125,0.43994140625,-0.77294921875,0.4580078125
70,1597982193038848,-0.03533935546875,-0.52606201171875,0.7108154296875,0.46551513671875,-2.5,1.125,0.125,0.43310546875,-0.78955078125,0.44580078125
71,1597982193060943,-0.03533935546875,-0.52606201171875,0.7108154296875,0.46551513671875,-0.5625,0.25,0.125,0.44287109375,-0.80810546875,0.451171875
72,1597982193078928,-0.03509521484375,-0.525634765625,0.7110595703125,0.46563720703125,3.625,0.75,-0.375,0.44873046875,-0.787109375,0.44189453125
73,1597982193098933,-0.03515625,-0.52532958984375,0.71124267578125,0.46575927734375,1.125,1.25,0.4375,0.44384765625,-0.7802734375,0.4521484375
74,1597982193120934,-0.035400390625,-0.52569580078125,0.71099853515625,0.46563720703125,-1.875,0.125,-0.1875,0.44140625,-0.8037109375,0.43701171875
75,1597982193138929,-0.03533935546875,-0.5257568359375,0.7109375,0.4656982421875,-0.875,0.125,0.5,0.4580078125,-0.7880859375,0.45068359375
76,1597982193159030,-0.0355224609375,-0.525634765625,0.71099853515625,0.4656982421875,0.375,1.1875,0.8125,0.455078125,-0.802734375,0.45263671875
77,1597982193181032,-0.0357666015625,-0.525390625,0.71124267578125,0.465576171875,1.25,1.5,2.125,0.44970703125,-0.79345703125,0.44873046875
78,1597982193199024,-0.03594970703125,-0.5250244140625,0.7115478515625,0.46551513671875,1.5,1.375,1.75,0.44189453125,-0.78564453125,0.45458984375
79,1597982193219031,-0.03607177734375,-0.52490234375,0.7117919921875,0.46527099609375,0.0,-0.1875,2.3125,0.439453125,-0.775390625,0.45166015625
80,1597982193241030,-0.03631591796875,-0.52532958984375,0.711669921875,0.4649658203125,-3.3125,-1.25,1.4375,0.4375,-0.78076171875,0.453125
81,1597982193259024,-0.03656005859375,-0.5257568359375,0.71142578125,0.46484375,-2.6875,-0.3125,0.5,0.44677734375,-0.80126953125,0.44677734375
82,1597982193279024,-0.03631591796875,-0.5255126953125,0.71142578125,0.465087890625,1.8125,0.9375,-0.9375,0.4560546875,-0.794921875,0.4501953125
83,1597982193301109,-0.0361328125,-0.5252685546875,0.7115478515625,0.4652099609375,1.625,0.1875,-0.25,0.44384765625,-0.7802734375,0.44775390625
84,1597982193319100,-0.0361328125,-0.5252685546875,0.7115478515625,0.4652099609375,-0.5,-1.0,-0.625,0.4404296875,-0.77587890625,0.44775390625
85,1597982193339182,-0.0361328125,-0.52606201171875,0.7110595703125,0.465087890625,-4.8125,-2.0,0.0625,0.45361328125,-0.78466796875,0.44677734375
86,1597982193361282,-0.0362548828125,-0.52642822265625,0.7108154296875,0.46502685546875,-2.5,-0.5,-0.125,0.45654296875,-0.80419921875,0.45166015625
87,1597982193379274,-0.0362548828125,-0.5264892578125,0.7108154296875,0.46502685546875,0.9375,-0.375,0.5,0.4501953125,-0.8056640625,0.45361328125
88,1597982193399277,-0.03607177734375,-0.52606201171875,0.7110595703125,0.465087890625,2.3125,0.1875,0.25,0.44580078125,-0.78759765625,0.4560546875
89,1597982193421366,-0.03582763671875,-0.52593994140625,0.7113037109375,0.46490478515625,1.0,-1.625,0.5,0.431640625,-0.779296875,0.4541015625
90,1597982193439358,-0.03607177734375,-0.5264892578125,0.71099853515625,0.46466064453125,-4.4375,-1.6875,0.5625,0.4423828125,-0.79150390625,0.46044921875
91,1597982193458363,-0.0361328125,-0.526611328125,0.71087646484375,0.4647216796875,-1.25,0.125,-0.5625,0.44580078125,-0.80517578125,0.45556640625
92,1597982193481363,-0.03607177734375,-0.52630615234375,0.7109375,0.4649658203125,1.5625,1.375,-0.4375,0.45068359375,-0.78857421875,0.4501953125
93,1597982193499358,-0.0362548828125,-0.52618408203125,0.71099853515625,0.465087890625,-0.3125,1.0,0.1875,0.43505859375,-0.78515625,0.45361328125
94,1597982193518448,-0.03662109375,-0.5264892578125,0.710693359375,0.46514892578125,-3.6875,0.6875,0.1875,0.4462890625,-0.783203125,0.453125
95,1597982193541447,-0.03692626953125,-0.52679443359375,0.7103271484375,0.46527099609375,-3.8125,0.6875,-0.3125,0.443359375,-0.78955078125,0.4560546875
96,1597982193559441,-0.03729248046875,-0.527099609375,0.7100830078125,0.46527099609375,-3.5,0.625,0.625,0.44580078125,-0.7900390625,0.4521484375
97,1597982193578447,-0.037841796875,-0.52728271484375,0.7098388671875,0.46539306640625,-2.9375,1.875,0.375,0.44384765625,-0.79736328125,0.44921875
98,1597982193601447,-0.038330078125,-0.52716064453125,0.709716796875,0.46563720703125,-1.25,3.0625,0.0625,0.44384765625,-0.79833984375,0.45166015625
99,1597982193619440,-0.038818359375,-0.52703857421875,0.70965576171875,0.46600341796875,-0.625,3.25,-0.6875,0.43701171875,-0.80712890625,0.44775390625
100,1597982193638447,-0.0386962890625,-0.52667236328125,0.70977783203125,0.4661865234375,1.375,0.8125,-0.125,0.439453125,-0.7744140625,0.4501953125
101,1597982193661528,-0.03863525390625,-0.52685546875,0.7095947265625,0.4661865234375,-2.0,-0.6875,-0.125,0.44482421875,-0.775390625,0.45068359375
