index,timestamp,orientation_x,orientation_y,orientation_z,orientation_w,gyroscope_x,gyroscope_y,gyroscope_z,acceleration_x,acceleration_y,acceleration_z
0,1597844029861210,-0.39837646484375,-0.0433349609375,-0.2222900390625,0.8887939453125,-17.125,5.625,-0.75,0.22314453125,-0.71435546875,0.8115234375
1,1597844029884209,-0.3988037109375,-0.0419921875,-0.2225341796875,0.88861083984375,-10.875,3.1875,0.5,0.23193359375,-0.70703125,0.8251953125
2,1597844029905209,-0.39886474609375,-0.04144287109375,-0.22235107421875,0.888671875,-6.3125,0.125,2.0625,0.25390625,-0.70947265625,0.810546875
3,1597844029921653,-0.398193359375,-0.04180908203125,-0.22198486328125,0.8890380859375,-0.25,-2.9375,2.25,0.27001953125,-0.69775390625,0.78662109375
4,1597844029944212,-0.397216796875,-0.04266357421875,-0.22149658203125,0.88958740234375,3.875,-4.5,1.875,0.27099609375,-0.69091796875,0.75439453125
5,1597844029963937,-0.39642333984375,-0.04376220703125,-0.22100830078125,0.88995361328125,4.9375,-5.1875,1.1875,0.2763671875,-0.69384765625,0.720703125
6,1597844029980902,-0.39593505859375,-0.04486083984375,-0.220703125,0.89019775390625,4.625,-4.5,0.125,0.275390625,-0.6962890625,0.689453125
7,1597844030004045,-0.39556884765625,-0.0455322265625,-0.22039794921875,0.89044189453125,4.0,-3.5625,-0.125,0.25830078125,-0.701171875,0.681640625
8,1597844030024856,-0.39501953125,-0.0460205078125,-0.2200927734375,0.8907470703125,5.25,-2.5625,0.0,0.24951171875,-0.7041015625,0.6875
9,1597844030041572,-0.3944091796875,-0.04632568359375,-0.21978759765625,0.89105224609375,4.75,-2.5625,0.25,0.24609375,-0.70947265625,0.697265625
10,1597844030064179,-0.39398193359375,-0.04681396484375,-0.21929931640625,0.891357421875,4.1875,-3.25,0.875,0.25048828125,-0.7119140625,0.7001953125
11,1597844030085178,-0.39306640625,-0.04736328125,-0.21881103515625,0.891845703125,6.3125,-3.3125,0.8125,0.2509765625,-0.70556640625,0.7158203125
12,1597844030101177,-0.3919677734375,-0.0478515625,-0.21832275390625,0.89239501953125,6.875,-3.1875,1.0625,0.25390625,-0.70751953125,0.732421875
13,1597844030124176,-0.390869140625,-0.0484619140625,-0.2178955078125,0.8929443359375,6.1875,-3.625,0.9375,0.25830078125,-0.70751953125,0.75341796875
14,1597844030144917,-0.391357421875,-0.0494384765625,-0.21746826171875,0.892822265625,-5.0625,-8.0625,-0.4375,0.25537109375,-0.68310546875,0.7685546875
15,1597844030161448,-0.39459228515625,-0.05120849609375,-0.2174072265625,0.89129638671875,-21.0,-16.3125,-5.6875,0.2451171875,-0.7041015625,0.7783203125
16,1597844030183393,-0.40191650390625,-0.05535888671875,-0.21820068359375,0.8875732421875,-49.0,-33.0625,-16.5,0.259765625,-0.66748046875,0.8095703125
17,1597844030204494,-0.41107177734375,-0.05792236328125,-0.21844482421875,0.88311767578125,-59.5625,-27.0,-8.9375,0.29541015625,-0.70458984375,0.77880859375
18,1597844030227174,-0.41717529296875,-0.056884765625,-0.21722412109375,0.880615234375,-34.5,-9.3125,3.0,0.24609375,-0.8486328125,0.70849609375
19,1597844030243339,-0.41619873046875,-0.05584716796875,-0.21453857421875,0.8818359375,11.5,-3.1875,10.9375,0.20068359375,-0.8291015625,0.671875
20,1597844030264571,-0.41107177734375,-0.05633544921875,-0.21160888671875,0.8848876953125,34.875,-5.8125,11.8125,0.201171875,-0.7236328125,0.66943359375
21,1597844030286592,-0.405517578125,-0.05731201171875,-0.20947265625,0.887939453125,39.5,-1.75,10.0625,0.265625,-0.70458984375,0.6240234375
22,1597844030302611,-0.4010009765625,-0.059326171875,-0.20684814453125,0.89044189453125,36.25,-7.5625,11.3125,0.3037109375,-0.70947265625,0.60498046875
23,1597844030323614,-0.39691162109375,-0.06158447265625,-0.204833984375,0.892578125,31.125,-6.625,9.0,0.3271484375,-0.673828125,0.62548828125
24,1597844030346628,-0.3939208984375,-0.06195068359375,-0.2039794921875,0.89410400390625,19.625,6.125,10.1875,0.3876953125,-0.66162109375,0.66064453125
25,1597844030362621,-0.3922119140625,-0.05999755859375,-0.20294189453125,0.89520263671875,7.375,16.75,17.9375,0.427734375,-0.68603515625,0.732421875
26,1597844030385611,-0.39215087890625,-0.0538330078125,-0.200439453125,0.89617919921875,-0.5,24.6875,24.625,0.22314453125,-0.77734375,0.71240234375
27,1597844030406726,-0.39398193359375,-0.04888916015625,-0.1988525390625,0.89599609375,-12.9375,19.4375,19.0625,0.24072265625,-0.71630859375,0.6689453125
28,1597844030422729,-0.39447021484375,-0.0447998046875,-0.19775390625,0.896240234375,-2.9375,18.3125,14.375,0.2529296875,-0.7919921875,0.71923828125
29,1597844030445689,-0.3909912109375,-0.04248046875,-0.19757080078125,0.89794921875,18.9375,17.9375,9.375,0.26318359375,-0.6494140625,0.6591796875
30,1597844030466717,-0.39019775390625,-0.03961181640625,-0.1971435546875,0.89849853515625,-0.4375,16.5625,11.3125,0.2568359375,-0.62841796875,0.6826171875
31,1597844030482707,-0.39117431640625,-0.0369873046875,-0.1966552734375,0.89825439453125,-4.3125,11.875,8.0625,0.2236328125,-0.73046875,0.6494140625
32,1597844030505710,-0.389892578125,-0.03564453125,-0.19659423828125,0.89892578125,7.9375,9.9375,4.875,0.234375,-0.671875,0.65380859375
33,1597844030526830,-0.3892822265625,-0.03472900390625,-0.19677734375,0.899169921875,2.8125,7.4375,2.25,0.23046875,-0.65869140625,0.6572265625
34,1597844030543249,-0.38946533203125,-0.0341796875,-0.19708251953125,0.8990478515625,-1.1875,4.1875,0.5625,0.22705078125,-0.67041015625,0.6611328125
35,1597844030565920,-0.3895263671875,-0.03387451171875,-0.1973876953125,0.89898681640625,0.375,3.5625,0.0625,0.23583984375,-0.681640625,0.66748046875
36,1597844030586820,-0.38922119140625,-0.03387451171875,-0.197509765625,0.8990478515625,1.8125,1.1875,-0.375,0.220703125,-0.68310546875,0.68212890625
37,1597844030603395,-0.3890380859375,-0.03411865234375,-0.19744873046875,0.899169921875,1.625,-1.5,-0.375,0.20849609375,-0.69091796875,0.69482421875
38,1597844030625853,-0.3887939453125,-0.03485107421875,-0.1973876953125,0.89923095703125,3.0,-3.875,-1.6875,0.20947265625,-0.69287109375,0.693359375
39,1597844030646778,-0.3883056640625,-0.03582763671875,-0.19720458984375,0.89947509765625,4.3125,-5.0,-1.5625,0.2119140625,-0.689453125,0.6923828125
40,1597844030662817,-0.38818359375,-0.03692626953125,-0.19696044921875,0.8995361328125,2.875,-6.3125,-1.375,0.21484375,-0.6982421875,0.689453125
41,1597844030685761,-0.3878173828125,-0.0380859375,-0.19671630859375,0.89971923828125,4.5,-6.25,-1.8125,0.21875,-0.70166015625,0.703125
42,1597844030706719,-0.38720703125,-0.039306640625,-0.19647216796875,0.89996337890625,4.6875,-6.3125,-1.5,0.22021484375,-0.6875,0.7080078125
43,1597844030722811,-0.38702392578125,-0.04046630859375,-0.1962890625,0.9000244140625,1.625,-6.5625,-1.6875,0.22705078125,-0.69677734375,0.7265625
44,1597844030745722,-0.38690185546875,-0.0416259765625,-0.19598388671875,0.90008544921875,1.875,-7.3125,-1.6875,0.22314453125,-0.70263671875,0.72412109375
45,1597844030766718,-0.38653564453125,-0.04290771484375,-0.1956787109375,0.9002685546875,3.0,-7.0625,-1.125,0.23046875,-0.69482421875,0.72900390625
46,1597844030782821,-0.38616943359375,-0.0439453125,-0.1953125,0.90045166015625,3.25,-5.9375,-0.1875,0.23583984375,-0.69189453125,0.71875
47,1597844030805852,-0.38580322265625,-0.044921875,-0.19488525390625,0.900634765625,2.8125,-5.125,0.5625,0.24462890625,-0.6884765625,0.72509765625
48,1597844030827164,-0.38543701171875,-0.045654296875,-0.1944580078125,0.90081787109375,3.0,-3.75,1.375,0.2568359375,-0.7041015625,0.73046875
49,1597844030842719,-0.38507080078125,-0.04632568359375,-0.19403076171875,0.90106201171875,2.375,-3.0625,2.0,0.2568359375,-0.68994140625,0.7333984375
50,1597844030865433,-0.38470458984375,-0.046630859375,-0.19354248046875,0.90130615234375,2.0625,-2.125,2.5625,0.24951171875,-0.68994140625,0.73291015625
51,1597844030886252,-0.38397216796875,-0.046630859375,-0.19293212890625,0.9017333984375,3.6875,-0.4375,3.4375,0.2431640625,-0.685546875,0.7353515625
52,1597844030903495,-0.38299560546875,-0.04632568359375,-0.19232177734375,0.90234375,4.75,0.875,4.25,0.2255859375,-0.67724609375,0.7314453125
53,1597844030925251,-0.382080078125,-0.04583740234375,-0.191650390625,0.90289306640625,4.25,1.8125,4.8125,0.2294921875,-0.6640625,0.72314453125
54,1597844030946261,-0.38140869140625,-0.0452880859375,-0.1910400390625,0.9033203125,4.0,2.375,4.9375,0.23095703125,-0.67578125,0.71044921875
55,1597844030963264,-0.380859375,-0.0447998046875,-0.1905517578125,0.9036865234375,2.9375,2.875,4.625,0.2412109375,-0.67236328125,0.708984375
56,1597844030985253,-0.38067626953125,-0.04443359375,-0.190185546875,0.90386962890625,0.75,2.0,3.0625,0.2353515625,-0.67138671875,0.7109375
57,1597844031006252,-0.38067626953125,-0.04412841796875,-0.1900634765625,0.90386962890625,-0.0625,1.5,2.0,0.240234375,-0.69091796875,0.71923828125
58,1597844031023256,-0.38067626953125,-0.04412841796875,-0.1900634765625,0.90386962890625,-0.5625,0.625,0.8125,0.23681640625,-0.69921875,0.7373046875
59,1597844031045261,-0.38067626953125,-0.04412841796875,-0.1900634765625,0.90386962890625,-0.6875,0.0,-0.0625,0.22607421875,-0.6943359375,0.7431640625
60,1597844031066775,-0.380615234375,-0.04412841796875,-0.19000244140625,0.9039306640625,0.3125,0.5,-0.3125,0.2216796875,-0.68408203125,0.73681640625
61,1597844031083396,-0.380615234375,-0.04412841796875,-0.19000244140625,0.9039306640625,0.875,0.4375,-0.125,0.2216796875,-0.67529296875,0.72900390625
62,1597844031105251,-0.37982177734375,-0.04388427734375,-0.18994140625,0.904296875,3.0625,0.9375,0.6875,0.208984375,-0.6611328125,0.72607421875
63,1597844031126335,-0.3790283203125,-0.04345703125,-0.18963623046875,0.9046630859375,3.75,1.4375,2.1875,0.205078125,-0.6533203125,0.7099609375
64,1597844031143254,-0.37872314453125,-0.04290771484375,-0.18927001953125,0.9049072265625,1.3125,1.875,2.6875,0.2060546875,-0.65869140625,0.70263671875
65,1597844031165250,-0.37860107421875,-0.0423583984375,-0.18902587890625,0.905029296875,0.875,2.25,2.3125,0.2138671875,-0.671875,0.69921875
66,1597844031186250,-0.37890625,-0.0418701171875,-0.1888427734375,0.90496826171875,-1.6875,2.25,2.0,0.22021484375,-0.65966796875,0.68359375
67,1597844031203250,-0.37969970703125,-0.04144287109375,-0.18890380859375,0.9046630859375,-4.125,2.375,1.1875,0.22900390625,-0.66845703125,0.6845703125
68,1597844031225699,-0.38092041015625,-0.0411376953125,-0.18902587890625,0.9041748046875,-6.875,1.6875,0.6875,0.23876953125,-0.67626953125,0.68798828125
69,1597844031249840,-0.38201904296875,-0.0408935546875,-0.189208984375,0.90362548828125,-6.4375,1.5625,-0.0625,0.24072265625,-0.68994140625,0.7060546875
70,1597844031263452,-0.38299560546875,-0.04071044921875,-0.189453125,0.9031982421875,-6.4375,0.875,-0.3125,0.23388671875,-0.6826171875,0.70849609375
71,1597844031285446,-0.3839111328125,-0.04052734375,-0.1895751953125,0.90277099609375,-6.375,0.0625,-0.1875,0.22509765625,-0.6826171875,0.716796875
72,1597844031308449,-0.384521484375,-0.04046630859375,-0.18951416015625,0.90252685546875,-4.625,-0.375,0.4375,0.22412109375,-0.68310546875,0.72314453125
73,1597844031323573,-0.38482666015625,-0.04034423828125,-0.18927001953125,0.9024658203125,-2.875,-0.75,1.375,0.21923828125,-0.6845703125,0.72412109375
74,1597844031346452,-0.38507080078125,-0.0401611328125,-0.18890380859375,0.9024658203125,-2.0,-0.5625,2.25,0.21630859375,-0.6962890625,0.72802734375
75,1597844031367979,-0.38519287109375,-0.03997802734375,-0.1884765625,0.9024658203125,-1.0625,-0.375,2.3125,0.22021484375,-0.69970703125,0.72509765625
76,1597844031382814,-0.38519287109375,-0.03973388671875,-0.1881103515625,0.902587890625,-0.125,0.0625,2.25,0.21826171875,-0.70703125,0.7314453125
77,1597844031405815,-0.38525390625,-0.03948974609375,-0.18780517578125,0.902587890625,-0.875,0.6875,2.4375,0.22900390625,-0.70751953125,0.73388671875
78,1597844031427971,-0.38494873046875,-0.0390625,-0.1876220703125,0.90283203125,1.4375,2.1875,2.0625,0.2265625,-0.71044921875,0.734375
79,1597844031448813,-0.3843994140625,-0.03863525390625,-0.1875,0.903076171875,2.0625,2.625,2.3125,0.22509765625,-0.69384765625,0.7392578125
80,1597844031465816,-0.3839111328125,-0.0380859375,-0.187255859375,0.90338134765625,1.25,2.5625,2.875,0.22412109375,-0.69677734375,0.7431640625
81,1597844031488451,-0.38311767578125,-0.03759765625,-0.1868896484375,0.90380859375,3.125,2.3125,2.875,0.2119140625,-0.69287109375,0.74462890625
82,1597844031502819,-0.38232421875,-0.03717041015625,-0.1865234375,0.90423583984375,2.8125,1.8125,3.375,0.2138671875,-0.68115234375,0.75
83,1597844031525192,-0.38177490234375,-0.0367431640625,-0.18597412109375,0.90460205078125,2.25,1.0,3.625,0.20654296875,-0.69189453125,0.7421875
84,1597844031548207,-0.38104248046875,-0.03631591796875,-0.18536376953125,0.905029296875,3.6875,0.625,3.8125,0.19384765625,-0.693359375,0.7392578125
85,1597844031562320,-0.38018798828125,-0.03607177734375,-0.1845703125,0.90557861328125,4.625,-0.625,4.0625,0.19091796875,-0.68896484375,0.7431640625
86,1597844031586208,-0.3797607421875,-0.035888671875,-0.183837890625,0.9058837890625,2.9375,-0.75,3.75,0.19580078125,-0.69482421875,0.7236328125
87,1597844031608207,-0.3795166015625,-0.03558349609375,-0.18316650390625,0.90618896484375,3.0,-0.375,3.125,0.19287109375,-0.70703125,0.7177734375
88,1597844031622209,-0.37908935546875,-0.035400390625,-0.1826171875,0.90643310546875,3.8125,-0.4375,2.5,0.18505859375,-0.7021484375,0.7119140625
89,1597844031645617,-0.37884521484375,-0.03521728515625,-0.1822509765625,0.9066162109375,2.5,0.0625,2.0,0.1962890625,-0.6953125,0.712890625
90,1597844031667947,-0.37908935546875,-0.03485107421875,-0.181884765625,0.9066162109375,-0.25,0.375,1.625,0.193359375,-0.69580078125,0.70263671875
91,1597844031682943,-0.37939453125,-0.03460693359375,-0.18170166015625,0.90655517578125,-0.375,0.75,1.375,0.1982421875,-0.69873046875,0.70361328125
92,1597844031705953,-0.379638671875,-0.03424072265625,-0.1815185546875,0.906494140625,-1.0,1.5625,1.6875,0.20458984375,-0.681640625,0.697265625
93,1597844031727948,-0.38006591796875,-0.0338134765625,-0.181396484375,0.9063720703125,-2.25,1.8125,1.9375,0.20361328125,-0.68359375,0.7021484375
94,1597844031742945,-0.3807373046875,-0.03326416015625,-0.18115234375,0.9061279296875,-3.5,1.875,2.0625,0.205078125,-0.69580078125,0.7041015625
95,1597844031765945,-0.3812255859375,-0.0328369140625,-0.1810302734375,0.906005859375,-2.9375,1.9375,1.875,0.20654296875,-0.6884765625,0.7080078125
96,1597844031787943,-0.381591796875,-0.0323486328125,-0.18096923828125,0.90582275390625,-3.5,2.1875,1.6875,0.20654296875,-0.68115234375,0.72021484375
97,1597844031808943,-0.38201904296875,-0.03192138671875,-0.18096923828125,0.90570068359375,-3.375,1.625,1.125,0.2001953125,-0.69189453125,0.73046875
98,1597844031825944,-0.38226318359375,-0.03173828125,-0.18109130859375,0.90557861328125,-2.9375,1.25,0.125,0.2060546875,-0.6806640625,0.728515625
99,1597844031847952,-0.38250732421875,-0.03173828125,-0.18133544921875,0.9053955078125,-2.8125,0.5625,-1.0625,0.20751953125,-0.69091796875,0.73291015625
100,1597844031868942,-0.38238525390625,-0.0318603515625,-0.18182373046875,0.9053955078125,-0.75,-0.3125,-2.875,0.1943359375,-0.68505859375,0.740234375
