index,timestamp,orientation_x,orientation_y,orientation_z,orientation_w,gyroscope_x,gyroscope_y,gyroscope_z,acceleration_x,acceleration_y,acceleration_z
0,1597981779185900,-0.1988525390625,0.30401611328125,-0.8133544921875,0.454345703125,-2.6875,-0.9375,2.0,0.04150390625,-0.720703125,0.75927734375
1,1597981779203870,-0.1986083984375,0.30377197265625,-0.81329345703125,0.45477294921875,3.125,-0.6875,1.6875,0.0390625,-0.71630859375,0.759765625
2,1597981779223880,-0.19805908203125,0.30291748046875,-0.8135986328125,0.45501708984375,6.875,-0.0625,0.0,0.04443359375,-0.6982421875,0.7490234375
3,1597981779245879,-0.1976318359375,0.3021240234375,-0.81402587890625,0.455078125,5.8125,0.375,-0.75,0.048828125,-0.68896484375,0.75341796875
4,1597981779263875,-0.19732666015625,0.30169677734375,-0.814208984375,0.455078125,3.3125,0.5625,-0.375,0.05078125,-0.68701171875,0.75537109375
5,1597981779283880,-0.1971435546875,0.30157470703125,-0.8143310546875,0.45501708984375,1.125,0.8125,-0.375,0.046875,-0.68310546875,0.75341796875
6,1597981779305881,-0.1971435546875,0.30181884765625,-0.8143310546875,0.454833984375,-1.5,0.5625,-0.8125,0.04150390625,-0.68408203125,0.75390625
7,1597981779323872,-0.19732666015625,0.30224609375,-0.814208984375,0.45477294921875,-2.625,0.0,-0.4375,0.0390625,-0.68994140625,0.75732421875
8,1597981779344873,-0.19757080078125,0.30255126953125,-0.8140869140625,0.45465087890625,-2.25,-0.375,-0.3125,0.04345703125,-0.69580078125,0.75634765625
9,1597981779365879,-0.19769287109375,0.302734375,-0.81396484375,0.45465087890625,-1.0625,-0.625,-0.3125,0.04248046875,-0.69775390625,0.75537109375
10,1597981779383874,-0.19769287109375,0.302734375,-0.81396484375,0.45465087890625,0.0,-0.9375,-0.0625,0.048828125,-0.69091796875,0.75830078125
11,1597981779404873,-0.19775390625,0.30255126953125,-0.81402587890625,0.4547119140625,1.0,-0.875,0.1875,0.0498046875,-0.69189453125,0.75732421875
12,1597981779425882,-0.19775390625,0.30224609375,-0.81402587890625,0.454833984375,1.25,-0.6875,0.3125,0.05029296875,-0.68408203125,0.76123046875
13,1597981779443878,-0.19769287109375,0.30224609375,-0.81402587890625,0.454833984375,0.875,-0.4375,0.6875,0.04931640625,-0.6865234375,0.76025390625
14,1597981779464881,-0.1976318359375,0.30206298828125,-0.8140869140625,0.4549560546875,1.0625,-0.1875,0.25,0.04931640625,-0.69091796875,0.76416015625
15,1597981779485903,-0.1976318359375,0.30206298828125,-0.8140869140625,0.4549560546875,0.5,-0.375,0.0625,0.04638671875,-0.68994140625,0.74951171875
16,1597981779503870,-0.1976318359375,0.30206298828125,-0.8140869140625,0.4549560546875,-0.4375,-0.4375,0.0,0.0419921875,-0.69091796875,0.76318359375
17,1597981779524872,-0.19775390625,0.30169677734375,-0.81414794921875,0.4549560546875,0.75,-1.625,-0.8125,0.0439453125,-0.68408203125,0.76806640625
18,1597981779545881,-0.19793701171875,0.301513671875,-0.81427001953125,0.454833984375,-0.1875,-1.1875,-1.6875,0.046875,-0.68505859375,0.76416015625
19,1597981779563878,-0.1981201171875,0.3009033203125,-0.81439208984375,0.45489501953125,1.75,-3.0,-1.1875,0.04541015625,-0.6953125,0.78857421875
20,1597981779584879,-0.19830322265625,0.3006591796875,-0.81463623046875,0.45465087890625,0.75,-1.125,-2.5625,0.044921875,-0.689453125,0.76416015625
21,1597981779605871,-0.1990966796875,0.30108642578125,-0.81488037109375,0.45361328125,-4.875,-0.9375,-6.875,0.0419921875,-0.67724609375,0.74560546875
22,1597981779623873,-0.20068359375,0.30303955078125,-0.81463623046875,0.45196533203125,-14.0,1.0625,-6.9375,0.068359375,-0.70849609375,0.73291015625
23,1597981779645879,-0.201416015625,0.3033447265625,-0.81463623046875,0.451416015625,-2.625,-0.875,-3.0625,0.0712890625,-0.72607421875,0.763671875
24,1597981779665976,-0.200927734375,0.3026123046875,-0.8153076171875,0.450927734375,3.5,2.375,-3.5,0.068359375,-0.68505859375,0.7841796875
25,1597981779683958,-0.20001220703125,0.30078125,-0.816650390625,0.45013427734375,7.5625,3.0625,-6.9375,0.06640625,-0.61962890625,0.77880859375
26,1597981779705960,-0.20147705078125,0.30010986328125,-0.817138671875,0.4490966796875,-7.1875,-5.9375,-8.1875,0.0751953125,-0.60302734375,0.794921875
27,1597981779725967,-0.20538330078125,0.30364990234375,-0.81512451171875,0.44854736328125,-35.1875,-11.0625,-0.3125,0.0537109375,-0.6279296875,0.765625
28,1597981779748961,-0.21124267578125,0.31011962890625,-0.8111572265625,0.44854736328125,-50.8125,-17.375,5.625,0.02685546875,-0.72900390625,0.73046875
29,1597981779766057,-0.2169189453125,0.3155517578125,-0.8074951171875,0.44873046875,-43.8125,-17.5,6.0,0.05859375,-0.76171875,0.7099609375
30,1597981779786047,-0.2215576171875,0.319580078125,-0.80438232421875,0.44915771484375,-32.625,-16.3125,5.6875,0.0595703125,-0.75732421875,0.681640625
31,1597981779808149,-0.2247314453125,0.32196044921875,-0.8023681640625,0.44952392578125,-19.625,-11.0,4.4375,0.08056640625,-0.7734375,0.6875
32,1597981779828144,-0.2265625,0.3231201171875,-0.80133056640625,0.44964599609375,-10.25,-6.6875,1.6875,0.08056640625,-0.75244140625,0.68603515625
33,1597981779846219,-0.2276611328125,0.32440185546875,-0.8004150390625,0.44976806640625,-8.25,-3.375,2.3125,0.06689453125,-0.7412109375,0.66552734375
34,1597981779868820,-0.22918701171875,0.3270263671875,-0.79901123046875,0.4495849609375,-15.9375,-1.8125,2.5,0.0654296875,-0.76171875,0.65576171875
35,1597981779886886,-0.23065185546875,0.3294677734375,-0.79779052734375,0.44921875,-14.6875,-1.9375,1.3125,0.0634765625,-0.7958984375,0.66748046875
36,1597981779905898,-0.231201171875,0.3304443359375,-0.79736328125,0.44903564453125,-5.625,0.25,0.6875,0.0791015625,-0.7841796875,0.6982421875
37,1597981779923890,-0.23095703125,0.330322265625,-0.79754638671875,0.44891357421875,1.25,1.5,-0.5,0.080078125,-0.75439453125,0.6923828125
38,1597981779945892,-0.23052978515625,0.33026123046875,-0.79779052734375,0.44873046875,0.625,2.125,-0.625,0.0703125,-0.73828125,0.69921875
39,1597981779965895,-0.2305908203125,0.330810546875,-0.79766845703125,0.448486328125,-4.8125,1.1875,-0.3125,0.0712890625,-0.73876953125,0.70263671875
40,1597981779983886,-0.2310791015625,0.33184814453125,-0.79718017578125,0.44830322265625,-6.75,0.125,0.375,0.068359375,-0.7607421875,0.6884765625
41,1597981780005892,-0.2313232421875,0.33209228515625,-0.79705810546875,0.44830322265625,-2.125,-0.5625,0.5625,0.0791015625,-0.767578125,0.7041015625
42,1597981780025987,-0.2310791015625,0.33135986328125,-0.7972412109375,0.4486083984375,4.3125,-0.9375,0.6875,0.076171875,-0.76123046875,0.701171875
43,1597981780043981,-0.23077392578125,0.33050537109375,-0.7974853515625,0.44891357421875,5.0625,-1.125,0.25,0.0732421875,-0.748046875,0.6982421875
44,1597981780065973,-0.23052978515625,0.33001708984375,-0.797607421875,0.44915771484375,2.6875,-0.3125,0.8125,0.07763671875,-0.73583984375,0.68994140625
45,1597981780085969,-0.23028564453125,0.33001708984375,-0.79766845703125,0.44921875,1.4375,0.9375,0.375,0.0693359375,-0.755859375,0.68505859375
46,1597981780103974,-0.22991943359375,0.32989501953125,-0.79779052734375,0.44927978515625,2.0625,1.1875,0.1875,0.06787109375,-0.75927734375,0.69140625
47,1597981780125970,-0.22967529296875,0.3294677734375,-0.7979736328125,0.44940185546875,3.125,-0.0625,-0.5,0.06494140625,-0.7509765625,0.69091796875
48,1597981780146035,-0.2294921875,0.32940673828125,-0.7979736328125,0.44952392578125,1.5625,0.4375,0.8125,0.0712890625,-0.75048828125,0.68603515625
49,1597981780164109,-0.2291259765625,0.329345703125,-0.798095703125,0.44952392578125,1.0,1.25,0.0625,0.06689453125,-0.75146484375,0.69873046875
50,1597981780186103,-0.2288818359375,0.32940673828125,-0.7982177734375,0.44940185546875,-0.1875,1.375,-0.625,0.06494140625,-0.74169921875,0.6962890625
51,1597981780206111,-0.22894287109375,0.32977294921875,-0.79815673828125,0.44915771484375,-1.8125,0.9375,-0.6875,0.0673828125,-0.75048828125,0.6875
52,1597981780224109,-0.22894287109375,0.33013916015625,-0.798095703125,0.44903564453125,-2.375,1.0,-0.0625,0.0703125,-0.755859375,0.7021484375
53,1597981780246103,-0.22894287109375,0.33013916015625,-0.798095703125,0.44903564453125,0.5625,0.5625,-0.375,0.0693359375,-0.75830078125,0.701171875
54,1597981780266205,-0.2286376953125,0.3294677734375,-0.79840087890625,0.4490966796875,3.5,0.3125,-0.5625,0.07568359375,-0.7421875,0.70849609375
55,1597981780284190,-0.2283935546875,0.3291015625,-0.798583984375,0.44921875,2.8125,0.0,-0.0625,0.0703125,-0.740234375,0.68505859375
56,1597981780306187,-0.2283935546875,0.3291015625,-0.798583984375,0.44921875,-0.6875,-0.4375,0.375,0.0693359375,-0.75244140625,0.69677734375
57,1597981780327190,-0.22857666015625,0.32904052734375,-0.79852294921875,0.4493408203125,0.25,-1.3125,0.4375,0.0732421875,-0.7568359375,0.6953125
58,1597981780344283,-0.2283935546875,0.32855224609375,-0.79864501953125,0.44952392578125,3.4375,-0.5625,0.25,0.07275390625,-0.75537109375,0.6962890625
59,1597981780366294,-0.22802734375,0.32794189453125,-0.79888916015625,0.44970703125,4.0,-0.0625,0.0,0.064453125,-0.74462890625,0.70361328125
60,1597981780387284,-0.227783203125,0.32763671875,-0.79901123046875,0.44976806640625,2.375,0.3125,-0.125,0.07080078125,-0.7421875,0.689453125
61,1597981780403283,-0.2279052734375,0.32781982421875,-0.7989501953125,0.4498291015625,-1.0625,-0.375,0.0625,0.064453125,-0.7451171875,0.69384765625
62,1597981780426286,-0.22808837890625,0.3280029296875,-0.798828125,0.44976806640625,-1.4375,-0.5,-0.25,0.06787109375,-0.74755859375,0.6923828125
63,1597981780447295,-0.22802734375,0.32781982421875,-0.7989501953125,0.44976806640625,1.0,-0.125,-0.4375,0.0712890625,-0.7490234375,0.701171875
64,1597981780463386,-0.227783203125,0.3275146484375,-0.799072265625,0.4498291015625,2.625,0.0625,-0.125,0.06640625,-0.74755859375,0.69482421875
65,1597981780486379,-0.22760009765625,0.3272705078125,-0.7991943359375,0.4498291015625,1.625,0.375,-0.3125,0.07275390625,-0.74072265625,0.701171875
66,1597981780507376,-0.22747802734375,0.3271484375,-0.79925537109375,0.44989013671875,1.1875,0.25,-0.1875,0.06689453125,-0.7509765625,0.6953125
67,1597981780523469,-0.22747802734375,0.32720947265625,-0.79925537109375,0.44989013671875,0.625,0.125,0.1875,0.06689453125,-0.744140625,0.69580078125
68,1597981780545460,-0.227294921875,0.32684326171875,-0.7994384765625,0.44989013671875,2.3125,0.1875,-0.125,0.0771484375,-0.74853515625,0.70068359375
69,1597981780566468,-0.227294921875,0.32684326171875,-0.7994384765625,0.44989013671875,0.8125,-0.5625,-0.3125,0.0732421875,-0.74560546875,0.70361328125
70,1597981780583471,-0.227294921875,0.32684326171875,-0.7994384765625,0.44989013671875,0.75,-0.5,-0.3125,0.07568359375,-0.7392578125,0.70068359375
71,1597981780605460,-0.22735595703125,0.32684326171875,-0.7994384765625,0.44989013671875,0.8125,-0.25,-0.1875,0.06982421875,-0.74609375,0.6962890625
72,1597981780628471,-0.227294921875,0.32684326171875,-0.7994384765625,0.44989013671875,0.4375,0.0625,-0.0625,0.06982421875,-0.75146484375,0.70751953125
73,1597981780643471,-0.2271728515625,0.32672119140625,-0.79949951171875,0.44989013671875,1.3125,0.25,-0.375,0.0673828125,-0.75048828125,0.6962890625
74,1597981780665462,-0.2271728515625,0.32672119140625,-0.79949951171875,0.44989013671875,0.6875,0.375,-0.5,0.06982421875,-0.7451171875,0.69970703125
75,1597981780688469,-0.22698974609375,0.3265380859375,-0.7996826171875,0.44989013671875,1.5625,0.8125,-0.4375,0.0703125,-0.7490234375,0.705078125
76,1597981780703463,-0.2265625,0.3260498046875,-0.7999267578125,0.449951171875,3.8125,0.875,-0.3125,0.0712890625,-0.74755859375,0.70458984375
77,1597981780725460,-0.22607421875,0.32537841796875,-0.80035400390625,0.45001220703125,5.125,0.875,-0.6875,0.07080078125,-0.740234375,0.7041015625
78,1597981780748472,-0.22576904296875,0.3248291015625,-0.80059814453125,0.45001220703125,3.875,0.125,-0.875,0.06884765625,-0.740234375,0.69970703125
79,1597981780762463,-0.22564697265625,0.32440185546875,-0.80078125,0.4500732421875,1.9375,-0.1875,-0.3125,0.0712890625,-0.7294921875,0.70654296875
80,1597981780785460,-0.2255859375,0.32415771484375,-0.8009033203125,0.4500732421875,1.125,-0.25,-0.5,0.07275390625,-0.736328125,0.7041015625
81,1597981780808471,-0.2255859375,0.32421875,-0.8009033203125,0.4500732421875,0.25,-0.0625,-0.0625,0.06689453125,-0.74169921875,0.705078125
82,1597981780822461,-0.2255859375,0.32421875,-0.8009033203125,0.4500732421875,0.375,-0.1875,0.0625,0.0732421875,-0.7431640625,0.7041015625
83,1597981780845460,-0.22552490234375,0.32403564453125,-0.80096435546875,0.4500732421875,1.125,0.0,-0.1875,0.07275390625,-0.7412109375,0.7060546875
84,1597981780868470,-0.225341796875,0.32366943359375,-0.8011474609375,0.4501953125,2.25,-0.125,-0.3125,0.068359375,-0.7392578125,0.7041015625
85,1597981780882463,-0.225341796875,0.32366943359375,-0.8011474609375,0.4501953125,0.5,0.25,-0.0625,0.06884765625,-0.73583984375,0.705078125
86,1597981780905460,-0.225341796875,0.32366943359375,-0.8011474609375,0.4501953125,-0.25,0.125,0.25,0.0732421875,-0.74609375,0.712890625
87,1597981780928472,-0.225341796875,0.32373046875,-0.8011474609375,0.4501953125,0.5625,0.1875,0.3125,0.0654296875,-0.74658203125,0.70361328125
88,1597981780942463,-0.2252197265625,0.3233642578125,-0.80120849609375,0.45025634765625,1.625,-0.6875,-0.375,0.06396484375,-0.73974609375,0.71630859375
89,1597981780965460,-0.2252197265625,0.32305908203125,-0.8013916015625,0.45025634765625,1.0625,-0.375,-0.625,0.07861328125,-0.72998046875,0.70751953125
90,1597981780988460,-0.2252197265625,0.32305908203125,-0.8013916015625,0.45025634765625,-1.0,0.125,-0.125,0.07080078125,-0.73681640625,0.70654296875
91,1597981781002470,-0.225341796875,0.3233642578125,-0.80126953125,0.4501953125,-1.5625,0.0625,-0.125,0.0673828125,-0.74560546875,0.70703125
92,1597981781025464,-0.225341796875,0.3233642578125,-0.80126953125,0.4501953125,0.375,0.3125,-0.1875,0.0712890625,-0.74462890625,0.7041015625
93,1597981781048471,-0.22515869140625,0.3231201171875,-0.8013916015625,0.4501953125,1.4375,0.0,-0.375,0.0693359375,-0.736328125,0.7099609375
94,1597981781062463,-0.22509765625,0.3228759765625,-0.80145263671875,0.45025634765625,1.3125,-0.3125,-0.1875,0.06787109375,-0.732421875,0.7060546875
95,1597981781085460,-0.22509765625,0.3228759765625,-0.80145263671875,0.45025634765625,-0.5625,0.1875,-0.3125,0.07470703125,-0.73486328125,0.70654296875
96,1597981781108470,-0.22509765625,0.32305908203125,-0.80145263671875,0.4501953125,-1.0625,0.4375,-0.0625,0.072265625,-0.73974609375,0.70361328125
97,1597981781129470,-0.22509765625,0.32305908203125,-0.80145263671875,0.4501953125,0.4375,0.375,-0.0625,0.06982421875,-0.7431640625,0.71240234375
98,1597981781145550,-0.22491455078125,0.32281494140625,-0.80157470703125,0.45025634765625,1.625,0.25,0.0625,0.07421875,-0.73583984375,0.712890625
99,1597981781168558,-0.2247314453125,0.32257080078125,-0.8016357421875,0.4503173828125,1.25,0.375,0.125,0.06982421875,-0.734375,0.71630859375
100,1597981781188644,-0.2247314453125,0.32257080078125,-0.8016357421875,0.4503173828125,-0.3125,0.75,0.0625,0.0712890625,-0.73828125,0.70751953125
