index,timestamp,orientation_x,orientation_y,orientation_z,orientation_w,gyroscope_x,gyroscope_y,gyroscope_z,acceleration_x,acceleration_y,acceleration_z
0,1597981776576436,-0.20050048828125,0.3006591796875,-0.81298828125,0.45660400390625,15.6875,2.5625,0.6875,0.05029296875,-0.67529296875,0.755859375
1,1597981776593442,-0.19940185546875,0.29931640625,-0.8135986328125,0.4569091796875,9.4375,1.8125,0.125,0.0498046875,-0.66552734375,0.759765625
2,1597981776615434,-0.1990966796875,0.298828125,-0.813720703125,0.45709228515625,2.8125,-0.8125,0.0625,0.04248046875,-0.68212890625,0.7666015625
3,1597981776636436,-0.19879150390625,0.2984619140625,-0.81390380859375,0.45709228515625,2.8125,0.625,-0.3125,0.0537109375,-0.69189453125,0.77294921875
4,1597981776653436,-0.19818115234375,0.29779052734375,-0.81439208984375,0.45697021484375,4.625,2.125,-1.3125,0.056640625,-0.6796875,0.77197265625
5,1597981776675433,-0.19775390625,0.297607421875,-0.81475830078125,0.4566650390625,1.375,2.5,-1.8125,0.05126953125,-0.66650390625,0.76123046875
6,1597981776696441,-0.19775390625,0.298095703125,-0.814697265625,0.45635986328125,-2.8125,1.9375,-0.5625,0.052734375,-0.67724609375,0.76025390625
7,1597981776713442,-0.19781494140625,0.29876708984375,-0.814453125,0.45635986328125,-3.25,1.0,0.9375,0.04638671875,-0.6923828125,0.76025390625
8,1597981776735432,-0.19781494140625,0.29913330078125,-0.81427001953125,0.4564208984375,-1.5625,0.4375,1.0625,0.04736328125,-0.6943359375,0.75927734375
9,1597981776756544,-0.19781494140625,0.2991943359375,-0.81427001953125,0.4564208984375,0.6875,0.125,0.875,0.04931640625,-0.6943359375,0.7646484375
10,1597981776773546,-0.19744873046875,0.29876708984375,-0.814453125,0.45660400390625,3.0625,0.375,0.25,0.04443359375,-0.68603515625,0.76513671875
11,1597981776795520,-0.19708251953125,0.2984619140625,-0.8145751953125,0.4566650390625,2.8125,0.625,0.0625,0.04638671875,-0.6796875,0.75732421875
12,1597981776816528,-0.19708251953125,0.2984619140625,-0.8145751953125,0.4566650390625,-0.8125,0.4375,0.0,0.04541015625,-0.6806640625,0.76123046875
13,1597981776832528,-0.19720458984375,0.298828125,-0.814453125,0.4566650390625,-2.3125,0.1875,0.25,0.046875,-0.6845703125,0.76611328125
14,1597981776855519,-0.19732666015625,0.2991943359375,-0.8143310546875,0.45654296875,-2.5,0.1875,0.0,0.04931640625,-0.6875,0.76611328125
15,1597981776877520,-0.19732666015625,0.29931640625,-0.8143310546875,0.45648193359375,-1.75,0.375,-0.25,0.046875,-0.69287109375,0.78564453125
16,1597981776892521,-0.19769287109375,0.299560546875,-0.814208984375,0.4564208984375,-2.4375,-1.4375,-0.75,0.044921875,-0.7041015625,0.78759765625
17,1597981776915522,-0.19757080078125,0.29931640625,-0.81414794921875,0.45672607421875,-0.375,-1.6875,0.75,0.029296875,-0.677734375,0.794921875
18,1597981776938530,-0.1993408203125,0.2996826171875,-0.81439208984375,0.4552001953125,-7.625,-2.875,-9.0625,0.08056640625,-0.66943359375,0.744140625
19,1597981776952528,-0.20001220703125,0.30108642578125,-0.81494140625,0.45306396484375,-9.1875,5.5625,-10.1875,0.06689453125,-0.66796875,0.7138671875
20,1597981776975522,-0.20098876953125,0.302978515625,-0.81439208984375,0.45233154296875,-10.5625,-0.6875,-3.375,0.02490234375,-0.76806640625,0.78076171875
21,1597981776998523,-0.201171875,0.30267333984375,-0.8145751953125,0.45208740234375,5.4375,-0.8125,-2.5,0.0546875,-0.732421875,0.70556640625
22,1597981777012523,-0.20013427734375,0.30035400390625,-0.815673828125,0.4521484375,11.3125,-0.5,-3.375,0.052734375,-0.64794921875,0.80126953125
23,1597981777035520,-0.19921875,0.2989501953125,-0.8170166015625,0.45098876953125,3.8125,5.875,-7.0,0.0908203125,-0.58984375,0.7783203125
24,1597981777058530,-0.2003173828125,0.3013916015625,-0.81683349609375,0.44921875,-18.9375,3.75,-6.6875,0.0546875,-0.63916015625,0.75341796875
25,1597981777079524,-0.20294189453125,0.30633544921875,-0.81500244140625,0.447998046875,-35.75,0.6875,0.1875,0.0595703125,-0.68212890625,0.75341796875
26,1597981777095519,-0.205322265625,0.3118896484375,-0.81268310546875,0.44732666015625,-34.5625,-0.0625,3.25,0.021484375,-0.7490234375,0.7392578125
27,1597981777118530,-0.207275390625,0.3153076171875,-0.81134033203125,0.44647216796875,-21.1875,-1.25,-0.6875,0.04345703125,-0.77197265625,0.7216796875
28,1597981777139613,-0.20794677734375,0.31561279296875,-0.8114013671875,0.44580078125,-1.9375,0.4375,-3.0625,0.08447265625,-0.7548828125,0.73095703125
29,1597981777155678,-0.20745849609375,0.3145751953125,-0.81207275390625,0.44561767578125,7.125,0.875,-2.9375,0.06005859375,-0.71240234375,0.7314453125
30,1597981777177680,-0.20709228515625,0.31396484375,-0.81243896484375,0.44549560546875,3.3125,0.4375,-1.8125,0.046875,-0.68408203125,0.7275390625
31,1597981777198687,-0.20758056640625,0.3153076171875,-0.81207275390625,0.44500732421875,-9.5625,0.0625,-2.0,0.0283203125,-0.69970703125,0.73193359375
32,1597981777215678,-0.20916748046875,0.3179931640625,-0.81121826171875,0.4439697265625,-18.0625,-0.25,-2.8125,0.04833984375,-0.7216796875,0.70751953125
33,1597981777237676,-0.210693359375,0.32012939453125,-0.810546875,0.44293212890625,-15.1875,0.4375,-2.8125,0.0791015625,-0.74951171875,0.72216796875
34,1597981777252075,-0.2113037109375,0.32098388671875,-0.8104248046875,0.44219970703125,-6.3125,1.6875,-2.0,0.08349609375,-0.732421875,0.71826171875
35,1597981777275103,-0.2113037109375,0.32159423828125,-0.81036376953125,0.44189453125,-1.9375,1.625,-1.125,0.04931640625,-0.734375,0.70703125
36,1597981777298088,-0.21142578125,0.322265625,-0.81011962890625,0.4417724609375,-3.375,-0.125,-0.4375,0.0390625,-0.7333984375,0.712890625
37,1597981777312193,-0.21185302734375,0.32275390625,-0.80987548828125,0.44171142578125,-2.8125,-1.4375,-0.375,0.04931640625,-0.7470703125,0.71533203125
38,1597981777335191,-0.21173095703125,0.3218994140625,-0.8101806640625,0.4417724609375,5.0,-0.625,-0.5625,0.07470703125,-0.73486328125,0.72705078125
39,1597981777358191,-0.21112060546875,0.32080078125,-0.810791015625,0.4417724609375,6.5,1.3125,-1.375,0.068359375,-0.70654296875,0.72412109375
40,1597981777379191,-0.21087646484375,0.32073974609375,-0.81103515625,0.4415283203125,0.3125,1.5,-1.375,0.0576171875,-0.705078125,0.7197265625
41,1597981777395192,-0.2113037109375,0.32177734375,-0.8106689453125,0.441162109375,-7.3125,0.5625,-0.4375,0.0546875,-0.72021484375,0.71533203125
42,1597981777418191,-0.21197509765625,0.32318115234375,-0.81005859375,0.44097900390625,-8.3125,-0.0625,0.5625,0.05419921875,-0.74853515625,0.7138671875
43,1597981777439197,-0.212158203125,0.32354736328125,-0.8099365234375,0.44085693359375,-1.4375,0.0625,-0.375,0.05615234375,-0.75390625,0.72021484375
44,1597981777455191,-0.21160888671875,0.32269287109375,-0.810302734375,0.44110107421875,6.625,0.25,0.0625,0.060546875,-0.7373046875,0.72412109375
45,1597981777478191,-0.2108154296875,0.321533203125,-0.810791015625,0.44134521484375,8.0,0.625,-0.3125,0.05615234375,-0.712890625,0.7216796875
46,1597981777499197,-0.21038818359375,0.32110595703125,-0.81103515625,0.44140625,2.625,0.875,-0.1875,0.05078125,-0.70263671875,0.72216796875
47,1597981777515197,-0.2105712890625,0.32171630859375,-0.81085205078125,0.44122314453125,-4.625,0.6875,0.0,0.0556640625,-0.71875,0.72265625
48,1597981777538192,-0.2109375,0.32257080078125,-0.81048583984375,0.44110107421875,-5.0625,0.125,0.3125,0.05859375,-0.73779296875,0.72265625
49,1597981777559197,-0.2109375,0.32257080078125,-0.81048583984375,0.44110107421875,-0.25,-0.25,0.5625,0.06005859375,-0.74267578125,0.71826171875
50,1597981777575192,-0.2105712890625,0.32196044921875,-0.81072998046875,0.4412841796875,4.0625,0.0625,0.25,0.0595703125,-0.73193359375,0.73095703125
51,1597981777598190,-0.21014404296875,0.32122802734375,-0.81103515625,0.44146728515625,4.4375,0.1875,0.0625,0.05810546875,-0.71435546875,0.73193359375
52,1597981777619196,-0.21014404296875,0.32122802734375,-0.81103515625,0.44146728515625,0.75,0.0,-0.25,0.0546875,-0.71337890625,0.71826171875
53,1597981777635282,-0.21051025390625,0.32159423828125,-0.81085205078125,0.44134521484375,-3.0625,-0.5,0.0,0.06640625,-0.72509765625,0.7216796875
54,1597981777658278,-0.2105712890625,0.32171630859375,-0.810791015625,0.44134521484375,-1.3125,-0.1875,0.3125,0.06005859375,-0.7265625,0.728515625
55,1597981777679281,-0.2105712890625,0.32171630859375,-0.810791015625,0.44134521484375,0.4375,0.0,-0.0625,0.06005859375,-0.728515625,0.72705078125
56,1597981777695276,-0.21051025390625,0.32159423828125,-0.81085205078125,0.44140625,1.0,0.125,0.0,0.05908203125,-0.72216796875,0.71337890625
57,1597981777718308,-0.2105712890625,0.32177734375,-0.81072998046875,0.44134521484375,-1.0625,-0.0625,-0.0625,0.05322265625,-0.72509765625,0.716796875
58,1597981777739377,-0.210693359375,0.32208251953125,-0.81060791015625,0.44140625,-2.0625,-0.375,0.375,0.05322265625,-0.7314453125,0.7265625
59,1597981777755371,-0.210693359375,0.32208251953125,-0.81060791015625,0.44140625,0.0,-0.1875,-0.0625,0.0556640625,-0.7255859375,0.72216796875
60,1597981777778454,-0.210693359375,0.3218994140625,-0.8106689453125,0.44134521484375,1.125,-0.0625,-0.4375,0.0625,-0.72802734375,0.71923828125
61,1597981777800447,-0.210693359375,0.3218994140625,-0.8106689453125,0.44134521484375,0.1875,0.3125,0.125,0.05712890625,-0.7216796875,0.71923828125
62,1597981777815454,-0.210693359375,0.322265625,-0.810546875,0.44134521484375,-1.9375,0.5,0.25,0.05224609375,-0.72412109375,0.720703125
63,1597981777838454,-0.21087646484375,0.32281494140625,-0.810302734375,0.4412841796875,-3.4375,0.125,0.375,0.05322265625,-0.72900390625,0.71630859375
64,1597981777860447,-0.21099853515625,0.32305908203125,-0.81024169921875,0.44122314453125,-1.6875,0.125,0.25,0.0615234375,-0.7314453125,0.72216796875
65,1597981777875445,-0.21099853515625,0.32305908203125,-0.8101806640625,0.44122314453125,-0.5,-0.0625,0.1875,0.05615234375,-0.7314453125,0.71337890625
66,1597981777898453,-0.2109375,0.32293701171875,-0.8101806640625,0.44140625,1.125,-0.4375,0.625,0.05712890625,-0.72900390625,0.72021484375
67,1597981777920447,-0.2109375,0.32293701171875,-0.8101806640625,0.44140625,0.3125,-0.125,0.25,0.05517578125,-0.73388671875,0.72705078125
68,1597981777935455,-0.2108154296875,0.3226318359375,-0.810302734375,0.4415283203125,1.4375,-0.3125,0.1875,0.0576171875,-0.72314453125,0.72119140625
69,1597981777942448,-0.2108154296875,0.3226318359375,-0.810302734375,0.4415283203125,0.3125,-0.0625,-0.6875,0.060546875,-0.72265625,0.7236328125
70,1597981777963455,-0.2108154296875,0.3226318359375,-0.810302734375,0.4415283203125,-0.8125,-0.125,-0.125,0.0537109375,-0.73046875,0.7158203125
71,1597981777986445,-0.2108154296875,0.32269287109375,-0.81024169921875,0.4415283203125,-0.25,-0.875,0.1875,0.05126953125,-0.73388671875,0.724609375
72,1597981778002447,-0.2108154296875,0.32244873046875,-0.810302734375,0.44158935546875,1.1875,-0.8125,0.0,0.05859375,-0.72900390625,0.720703125
73,1597981778023454,-0.21063232421875,0.32208251953125,-0.8104248046875,0.44171142578125,2.5625,-0.25,-0.125,0.0576171875,-0.7265625,0.7197265625
74,1597981778046457,-0.21044921875,0.32159423828125,-0.8106689453125,0.44171142578125,2.3125,-0.375,-0.6875,0.05419921875,-0.71533203125,0.7294921875
75,1597981778062447,-0.21075439453125,0.321533203125,-0.81072998046875,0.44158935546875,-0.875,-1.4375,-1.6875,0.056640625,-0.72021484375,0.720703125
76,1597981778083453,-0.2113037109375,0.3216552734375,-0.81060791015625,0.44140625,-2.5,-1.6875,-1.1875,0.064453125,-0.7236328125,0.724609375
77,1597981778106448,-0.2117919921875,0.322021484375,-0.8104248046875,0.4412841796875,-3.375,-1.5625,-0.6875,0.0546875,-0.72998046875,0.72119140625
78,1597981778122447,-0.212158203125,0.3221435546875,-0.81024169921875,0.4412841796875,-1.5625,-1.5,0.125,0.0625,-0.734375,0.7158203125
79,1597981778143453,-0.2122802734375,0.3221435546875,-0.81011962890625,0.44140625,-0.1875,-1.375,0.0625,0.0576171875,-0.7353515625,0.72509765625
80,1597981778165540,-0.21221923828125,0.32177734375,-0.81024169921875,0.4415283203125,2.0,-0.6875,0.125,0.05810546875,-0.7255859375,0.7236328125
81,1597981778182534,-0.21209716796875,0.32147216796875,-0.8104248046875,0.4415283203125,1.125,-0.0625,-0.75,0.0634765625,-0.716796875,0.7236328125
82,1597981778203530,-0.21221923828125,0.32171630859375,-0.810302734375,0.44140625,-1.3125,0.125,-0.375,0.0556640625,-0.7255859375,0.71240234375
83,1597981778227632,-0.21240234375,0.3221435546875,-0.81011962890625,0.44134521484375,-2.375,-0.0625,0.0,0.05859375,-0.72900390625,0.70751953125
84,1597981778242637,-0.21246337890625,0.32244873046875,-0.80999755859375,0.44134521484375,-1.4375,-0.3125,0.375,0.05224609375,-0.7353515625,0.7177734375
85,1597981778263629,-0.21240234375,0.32220458984375,-0.81005859375,0.44146728515625,1.5625,-0.4375,0.1875,0.05859375,-0.7314453125,0.72265625
86,1597981778285629,-0.212158203125,0.32171630859375,-0.81024169921875,0.44158935546875,3.25,-0.0625,-0.3125,0.0625,-0.72265625,0.71875
87,1597981778302620,-0.2120361328125,0.321533203125,-0.81036376953125,0.44158935546875,1.25,0.1875,-0.4375,0.056640625,-0.7275390625,0.72265625
88,1597981778323629,-0.2120361328125,0.321533203125,-0.81036376953125,0.44158935546875,0.0,0.0,-0.375,0.0625,-0.72802734375,0.72314453125
89,1597981778345726,-0.2120361328125,0.32159423828125,-0.81036376953125,0.44158935546875,-0.3125,-0.1875,-0.0625,0.05908203125,-0.73046875,0.71826171875
90,1597981778362721,-0.21185302734375,0.3214111328125,-0.81036376953125,0.44171142578125,1.125,0.0625,0.75,0.0615234375,-0.7216796875,0.71630859375
91,1597981778383726,-0.21185302734375,0.3214111328125,-0.81036376953125,0.44171142578125,0.6875,0.125,0.0625,0.0595703125,-0.7294921875,0.7197265625
92,1597981778405726,-0.2117919921875,0.32122802734375,-0.81048583984375,0.44171142578125,1.1875,0.125,-0.1875,0.064453125,-0.724609375,0.7255859375
93,1597981778422722,-0.2117919921875,0.32122802734375,-0.81048583984375,0.44171142578125,-0.375,-0.375,0.0,0.0537109375,-0.728515625,0.71875
94,1597981778443721,-0.2117919921875,0.32122802734375,-0.81048583984375,0.44171142578125,0.0,-0.375,-0.0625,0.05712890625,-0.724609375,0.72021484375
95,1597981778465726,-0.2117919921875,0.32122802734375,-0.81048583984375,0.44171142578125,-1.0,0.0,-0.6875,0.05810546875,-0.72412109375,0.7177734375
96,1597981778482722,-0.2117919921875,0.32122802734375,-0.81048583984375,0.44171142578125,-0.6875,0.1875,-0.375,0.0634765625,-0.7255859375,0.72216796875
97,1597981778503717,-0.2117919921875,0.32122802734375,-0.81048583984375,0.44171142578125,-0.375,0.125,0.4375,0.056640625,-0.728515625,0.71826171875
98,1597981778525726,-0.2117919921875,0.32122802734375,-0.81048583984375,0.44171142578125,-0.375,0.0625,0.1875,0.06005859375,-0.7294921875,0.72021484375
99,1597981778542721,-0.2119140625,0.32122802734375,-0.8104248046875,0.4417724609375,-0.3125,-1.0625,-0.25,0.05517578125,-0.7314453125,0.72412109375
100,1597981778563726,-0.21221923828125,0.321044921875,-0.81036376953125,0.44183349609375,0.0,-2.5625,-0.625,0.056640625,-0.7275390625,0.72265625
101,1597981778585726,-0.21258544921875,0.3209228515625,-0.810302734375,0.44189453125,-0.5625,-2.1875,-0.625,0.0615234375,-0.72412109375,0.72265625
