index,timestamp,orientation_x,orientation_y,orientation_z,orientation_w,gyroscope_x,gyroscope_y,gyroscope_z,acceleration_x,acceleration_y,acceleration_z
0,1597653202857530,0.02862548828125,-0.20184326171875,0.72418212890625,0.65875244140625,-0.1875,0.5,-0.5625,0.296875,-0.25732421875,0.91064453125
1,1597653202879977,0.0283203125,-0.20196533203125,0.72412109375,0.65875244140625,-1.125,0.1875,-0.375,0.30078125,-0.263671875,0.91357421875
2,1597653202901036,0.0283203125,-0.20208740234375,0.7239990234375,0.65887451171875,0.1875,-0.5625,-1.1875,0.302734375,-0.26611328125,0.916015625
3,1597653202917994,0.0286865234375,-0.201904296875,0.7239990234375,0.65887451171875,2.5,-0.6875,-0.625,0.30908203125,-0.26220703125,0.9111328125
4,1597653202953987,0.02911376953125,-0.20172119140625,0.7239990234375,0.65899658203125,2.375,-0.6875,-1.0,0.30908203125,-0.2548828125,0.91455078125
5,1597653202960988,0.02911376953125,-0.20166015625,0.7239990234375,0.65899658203125,0.625,-0.3125,-0.125,0.3017578125,-0.24658203125,0.91796875
6,1597653202978101,0.02911376953125,-0.20166015625,0.7239990234375,0.65899658203125,-0.875,-0.4375,0.3125,0.310546875,-0.25927734375,0.921875
7,1597653202999995,0.0291748046875,-0.2015380859375,0.7239990234375,0.65899658203125,1.0,-0.125,-0.375,0.30322265625,-0.25927734375,0.91943359375
8,1597653203020991,0.02935791015625,-0.20123291015625,0.72406005859375,0.65899658203125,2.1875,0.0,-0.125,0.3017578125,-0.25537109375,0.91845703125
9,1597653203038117,0.029541015625,-0.20111083984375,0.72412109375,0.65899658203125,1.25,0.0,0.125,0.30908203125,-0.24853515625,0.91064453125
10,1597653203059991,0.029541015625,-0.20111083984375,0.72412109375,0.65899658203125,-0.1875,0.0625,0.3125,0.30615234375,-0.25244140625,0.912109375
11,1597653203083176,0.029296875,-0.201416015625,0.72412109375,0.65887451171875,-1.125,-0.5,0.4375,0.306640625,-0.27197265625,0.91796875
12,1597653203098301,0.029296875,-0.20147705078125,0.72412109375,0.65887451171875,0.75,-0.875,-0.5625,0.310546875,-0.25830078125,0.9189453125
13,1597653203120239,0.02923583984375,-0.201416015625,0.72418212890625,0.65887451171875,-0.0625,-0.75,-0.5625,0.298828125,-0.25390625,0.9111328125
14,1597653203142339,0.0294189453125,-0.20220947265625,0.72412109375,0.65863037109375,-2.8125,-3.9375,0.875,0.3046875,-0.248046875,0.90673828125
15,1597653203157216,0.0302734375,-0.201904296875,0.723876953125,0.65899658203125,2.5,-0.8125,-2.75,0.330078125,-0.2275390625,0.912109375
16,1597653203179997,0.0296630859375,-0.20196533203125,0.72357177734375,0.6593017578125,-4.3125,1.5625,-1.5625,0.29736328125,-0.24072265625,0.9404296875
17,1597653203203008,0.0289306640625,-0.2021484375,0.72369384765625,0.6591796875,-1.25,1.6875,1.0,0.3056640625,-0.28857421875,0.93310546875
18,1597653203217212,0.02923583984375,-0.20135498046875,0.7239990234375,0.6590576171875,6.125,2.375,0.6875,0.3212890625,-0.2822265625,0.92724609375
19,1597653203240600,0.02972412109375,-0.20013427734375,0.72418212890625,0.6591796875,7.0625,3.3125,-0.25,0.31494140625,-0.2451171875,0.9091796875
20,1597653203263601,0.029541015625,-0.19921875,0.72442626953125,0.65924072265625,3.375,4.1875,0.6875,0.30859375,-0.25634765625,0.9306640625
21,1597653203277771,0.02960205078125,-0.19818115234375,0.72515869140625,0.65875244140625,5.8125,3.375,4.4375,0.3017578125,-0.25341796875,0.90966796875
22,1597653203300520,0.029296875,-0.1978759765625,0.72589111328125,0.65802001953125,1.75,2.9375,6.0,0.31640625,-0.25244140625,0.90185546875
23,1597653203322435,0.02838134765625,-0.19781494140625,0.726318359375,0.65765380859375,-1.9375,3.25,4.0,0.28955078125,-0.25634765625,0.89794921875
24,1597653203337427,0.028564453125,-0.19732666015625,0.72662353515625,0.657470703125,1.5,1.0625,2.125,0.29833984375,-0.2255859375,0.92431640625
25,1597653203360566,0.028564453125,-0.19720458984375,0.72662353515625,0.657470703125,-0.0625,-0.8125,-0.125,0.275390625,-0.20703125,0.88525390625
26,1597653203382459,0.02850341796875,-0.19757080078125,0.72601318359375,0.65802001953125,-5.0625,-1.0,-3.75,0.29541015625,-0.21337890625,0.92529296875
27,1597653203397458,0.02783203125,-0.1983642578125,0.7254638671875,0.65838623046875,-7.375,-0.5,-2.625,0.2978515625,-0.24560546875,0.94189453125
28,1597653203421011,0.02679443359375,-0.19921875,0.7249755859375,0.65875244140625,-8.125,2.875,-1.625,0.33056640625,-0.25341796875,0.92919921875
29,1597653203442543,0.0263671875,-0.198974609375,0.72430419921875,0.6595458984375,-1.3125,4.0,-5.3125,0.30615234375,-0.26123046875,0.9189453125
30,1597653203457450,0.0252685546875,-0.1983642578125,0.72393798828125,0.66015625,-1.0625,6.5,-3.5625,0.294921875,-0.27587890625,0.95361328125
31,1597653203480688,0.0234375,-0.19781494140625,0.72393798828125,0.66046142578125,-3.0625,9.3125,0.0625,0.29052734375,-0.2900390625,0.94384765625
32,1597653203510648,0.021728515625,-0.19708251953125,0.724609375,0.65997314453125,1.625,10.3125,5.5,0.30810546875,-0.3212890625,0.92578125
33,1597653203516653,0.02130126953125,-0.195068359375,0.72515869140625,0.65997314453125,7.6875,10.0625,2.375,0.2978515625,-0.259765625,0.91552734375
34,1597653203540734,0.02197265625,-0.19305419921875,0.72528076171875,0.660400390625,9.5625,6.25,-2.0625,0.28369140625,-0.2177734375,0.8818359375
35,1597653203562645,0.02197265625,-0.19171142578125,0.72467041015625,0.66143798828125,-1.25,5.5,-5.0,0.26904296875,-0.15283203125,0.900390625
36,1597653203584431,0.01922607421875,-0.19256591796875,0.7244873046875,0.6614990234375,-13.0,7.25,1.6875,0.271484375,-0.27685546875,0.93798828125
37,1597653203600060,0.0174560546875,-0.19232177734375,0.724609375,0.6614990234375,-0.3125,6.375,0.125,0.26123046875,-0.34765625,0.96630859375
38,1597653203623065,0.01849365234375,-0.19036865234375,0.7247314453125,0.661865234375,12.5625,4.375,-2.25,0.2900390625,-0.25439453125,0.90869140625
39,1597653203644349,0.01861572265625,-0.18896484375,0.72491455078125,0.662109375,4.5,6.125,-0.0625,0.2900390625,-0.2216796875,0.92138671875
40,1597653203660160,0.017578125,-0.1885986328125,0.72515869140625,0.6619873046875,-1.5,6.0,2.4375,0.27734375,-0.25341796875,0.91748046875
41,1597653203682968,0.0172119140625,-0.1876220703125,0.72509765625,0.662353515625,3.125,4.625,-1.8125,0.25927734375,-0.2578125,0.9267578125
42,1597653203704871,0.01715087890625,-0.1865234375,0.72491455078125,0.662841796875,3.75,2.5625,-3.25,0.244140625,-0.2490234375,0.9501953125
43,1597653203719866,0.015869140625,-0.18658447265625,0.725341796875,0.66241455078125,-3.5,4.5,4.4375,0.2685546875,-0.267578125,0.93017578125
44,1597653203742867,0.01629638671875,-0.1856689453125,0.725830078125,0.662109375,5.875,2.9375,2.8125,0.294921875,-0.25048828125,0.9365234375
45,1597653203763866,0.01739501953125,-0.1844482421875,0.7257080078125,0.66253662109375,5.75,1.125,-2.1875,0.265625,-0.18115234375,0.8876953125
46,1597653203780134,0.01690673828125,-0.18511962890625,0.72515869140625,0.66290283203125,-8.0625,-1.0,-2.625,0.2490234375,-0.2001953125,0.90478515625
47,1597653203802901,0.01544189453125,-0.18609619140625,0.7249755859375,0.66290283203125,-7.25,0.3125,-0.5,0.2451171875,-0.29833984375,0.9619140625
48,1597653203823924,0.014404296875,-0.18646240234375,0.72540283203125,0.66241455078125,0.5625,1.6875,3.1875,0.26953125,-0.34228515625,0.96630859375
49,1597653203840054,0.01654052734375,-0.1849365234375,0.7254638671875,0.66265869140625,12.9375,-0.875,-2.3125,0.2880859375,-0.2197265625,0.9033203125
50,1597653203863028,0.01763916015625,-0.18408203125,0.72528076171875,0.6630859375,2.625,-0.125,-2.25,0.267578125,-0.158203125,0.88818359375
51,1597653203884189,0.01629638671875,-0.18499755859375,0.72503662109375,0.66314697265625,-8.75,1.0,0.0,0.2607421875,-0.2587890625,0.947265625
52,1597653203901057,0.0152587890625,-0.18572998046875,0.724853515625,0.66314697265625,-1.75,0.375,-1.25,0.25830078125,-0.33837890625,0.95263671875
53,1597653203923225,0.0152587890625,-0.18487548828125,0.725341796875,0.66290283203125,6.0,2.1875,1.8125,0.25634765625,-0.279296875,0.947265625
54,1597653203945048,0.016845703125,-0.1837158203125,0.72552490234375,0.6629638671875,9.4375,-0.5625,-0.375,0.2841796875,-0.21240234375,0.89599609375
55,1597653203960189,0.0172119140625,-0.18365478515625,0.72540283203125,0.6630859375,-1.875,-0.75,-0.625,0.26416015625,-0.1826171875,0.89892578125
56,1597653203983101,0.01605224609375,-0.18463134765625,0.7252197265625,0.66302490234375,-7.625,-0.1875,0.375,0.26025390625,-0.27197265625,0.96142578125
57,1597653204005097,0.0146484375,-0.18536376953125,0.72552490234375,0.66253662109375,-3.5,1.3125,3.25,0.26025390625,-0.33056640625,0.9716796875
58,1597653204020095,0.01593017578125,-0.18414306640625,0.7259521484375,0.662353515625,11.0,0.0,0.8125,0.27392578125,-0.25244140625,0.91796875
59,1597653204043104,0.01715087890625,-0.18310546875,0.72607421875,0.66253662109375,5.625,0.5,-0.5,0.28076171875,-0.1826171875,0.9033203125
60,1597653204065103,0.016845703125,-0.1834716796875,0.725830078125,0.66265869140625,-4.75,-0.25,-0.625,0.259765625,-0.2158203125,0.9228515625
61,1597653204086403,0.01556396484375,-0.18414306640625,0.72576904296875,0.66259765625,-6.125,0.9375,0.6875,0.25146484375,-0.27880859375,0.955078125
62,1597653204102410,0.0152587890625,-0.18408203125,0.72601318359375,0.662353515625,1.0625,0.3125,1.5625,0.255859375,-0.27685546875,0.95654296875
63,1597653204125400,0.01629638671875,-0.18310546875,0.7261962890625,0.662353515625,7.5,-0.375,-0.4375,0.26513671875,-0.236328125,0.91943359375
64,1597653204140505,0.01702880859375,-0.18267822265625,0.72601318359375,0.6627197265625,1.5,0.0625,-1.8125,0.2763671875,-0.189453125,0.9013671875
65,1597653204162405,0.015625,-0.18377685546875,0.72564697265625,0.66278076171875,-10.1875,1.375,-0.3125,0.26513671875,-0.25146484375,0.94384765625
66,1597653204185412,0.01458740234375,-0.18438720703125,0.725830078125,0.6624755859375,-2.5,0.0,1.5,0.25390625,-0.3173828125,0.96826171875
67,1597653204206392,0.01568603515625,-0.18359375,0.72607421875,0.66241455078125,8.75,-1.25,-0.375,0.263671875,-0.26220703125,0.919921875
68,1597653204222408,0.01715087890625,-0.18280029296875,0.7259521484375,0.6627197265625,4.0625,-1.875,-1.5,0.2705078125,-0.16064453125,0.896484375
69,1597653204245405,0.01678466796875,-0.18389892578125,0.72564697265625,0.6627197265625,-7.3125,-2.375,-0.5,0.26708984375,-0.2236328125,0.91259765625
70,1597653204259400,0.01513671875,-0.18548583984375,0.7255859375,0.66241455078125,-9.3125,-0.625,1.4375,0.2607421875,-0.3125,0.9658203125
71,1597653204282402,0.0155029296875,-0.18536376953125,0.7257080078125,0.66229248046875,5.125,-2.0625,-0.5,0.25732421875,-0.2978515625,0.93701171875
72,1597653204305404,0.01678466796875,-0.18450927734375,0.72564697265625,0.66259765625,5.4375,-1.375,-2.125,0.27001953125,-0.19970703125,0.9140625
73,1597653204319405,0.01715087890625,-0.1845703125,0.72552490234375,0.66265869140625,-1.4375,-2.125,-0.4375,0.26123046875,-0.2041015625,0.91943359375
74,1597653204342402,0.01690673828125,-0.18548583984375,0.725341796875,0.66259765625,-4.0,-3.375,-0.625,0.2587890625,-0.26806640625,0.9404296875
75,1597653204365404,0.01751708984375,-0.18603515625,0.725341796875,0.6624755859375,2.5,-5.6875,-1.1875,0.2607421875,-0.2822265625,0.9375
76,1597653204379939,0.01861572265625,-0.1861572265625,0.7254638671875,0.66229248046875,5.1875,-5.25,-0.5,0.2744140625,-0.27001953125,0.9267578125
77,1597653204402665,0.01934814453125,-0.18609619140625,0.7259521484375,0.6617431640625,5.3125,-3.4375,2.8125,0.2734375,-0.27490234375,0.935546875
78,1597653204425664,0.02099609375,-0.185791015625,0.72705078125,0.66058349609375,9.3125,-7.375,7.0,0.2685546875,-0.2451171875,0.9267578125
79,1597653204439479,0.0223388671875,-0.185791015625,0.7279052734375,0.65960693359375,4.1875,-5.9375,6.5625,0.27978515625,-0.2080078125,0.91259765625
80,1597653204463074,0.0211181640625,-0.18707275390625,0.728759765625,0.6583251953125,-12.3125,-2.0,10.6875,0.26953125,-0.201171875,0.95703125
81,1597653204485510,0.0211181640625,-0.18817138671875,0.72955322265625,0.6571044921875,-4.5,-3.75,9.0625,0.31591796875,-0.2470703125,0.97314453125
82,1597653204506505,0.02294921875,-0.18829345703125,0.73077392578125,0.65570068359375,11.6875,-7.8125,7.9375,0.3017578125,-0.30078125,0.91650390625
83,1597653204522481,0.02508544921875,-0.18756103515625,0.73187255859375,0.654541015625,12.75,-7.0,6.4375,0.27490234375,-0.23291015625,0.87353515625
84,1597653204553383,0.0247802734375,-0.1885986328125,0.73272705078125,0.6533203125,-5.0,-5.0625,8.5,0.24609375,-0.22314453125,0.88330078125
85,1597653204566569,0.02471923828125,-0.1898193359375,0.7332763671875,0.65240478515625,-6.875,-7.3125,6.375,0.25634765625,-0.2138671875,0.93115234375
86,1597653204583209,0.0257568359375,-0.19110107421875,0.73321533203125,0.6519775390625,-4.375,-10.0,1.25,0.27490234375,-0.201171875,0.9140625
87,1597653204605555,0.0264892578125,-0.1923828125,0.7327880859375,0.652099609375,-3.1875,-7.25,-2.8125,0.3017578125,-0.25341796875,0.94140625
88,1597653204626540,0.0269775390625,-0.19329833984375,0.73187255859375,0.65283203125,-5.1875,-3.6875,-5.5625,0.318359375,-0.22119140625,0.93701171875
89,1597653204642616,0.0263671875,-0.19464111328125,0.73095703125,0.6534423828125,-7.9375,-1.25,-5.5,0.30224609375,-0.26904296875,0.92822265625
90,1597653204665554,0.025634765625,-0.19561767578125,0.73040771484375,0.65380859375,-5.0,-0.1875,-3.5625,0.296875,-0.2900390625,0.92236328125
91,1597653204686744,0.0250244140625,-0.19622802734375,0.72991943359375,0.65423583984375,-3.3125,0.375,-3.375,0.2880859375,-0.2890625,0.921875
92,1597653204702653,0.024658203125,-0.196533203125,0.7298583984375,0.65423583984375,-2.0,0.5,-0.0625,0.2939453125,-0.26708984375,0.9267578125
93,1597653204725743,0.02447509765625,-0.1966552734375,0.73004150390625,0.65399169921875,-0.25,-0.3125,1.3125,0.29052734375,-0.2724609375,0.923828125
94,1597653204746493,0.02459716796875,-0.19647216796875,0.730224609375,0.65380859375,2.8125,0.0,1.0,0.28955078125,-0.271484375,0.91796875
95,1597653204762496,0.02490234375,-0.1962890625,0.7303466796875,0.65374755859375,2.125,-1.125,0.25,0.28857421875,-0.25830078125,0.91796875
96,1597653204785718,0.02532958984375,-0.19622802734375,0.73065185546875,0.65338134765625,2.375,-1.6875,1.9375,0.29541015625,-0.25439453125,0.921875
97,1597653204807728,0.02569580078125,-0.19635009765625,0.73101806640625,0.6529541015625,2.0625,-2.125,2.75,0.296875,-0.263671875,0.91650390625
98,1597653204822722,0.02618408203125,-0.1962890625,0.7313232421875,0.652587890625,2.625,-2.125,2.0,0.2919921875,-0.2568359375,0.9169921875
99,1597653204844865,0.02667236328125,-0.19610595703125,0.7315673828125,0.65234375,2.1875,-1.8125,1.4375,0.2939453125,-0.23974609375,0.92236328125
