index,timestamp,orientation_x,orientation_y,orientation_z,orientation_w,gyroscope_x,gyroscope_y,gyroscope_z,acceleration_x,acceleration_y,acceleration_z
0,1596831667916542,-0.10357666015625,0.0623779296875,-0.964111328125,-0.236572265625,25.0625,12.1875,-21.5,0.63720703125,-0.1484375,1.51904296875
1,1596831667937539,-0.09796142578125,0.061767578125,-0.96551513671875,-0.2332763671875,8.75,20.5625,18.6875,0.04150390625,-0.2255859375,0.908203125
2,1596831667954540,-0.09674072265625,0.0572509765625,-0.9666748046875,-0.23016357421875,14.875,8.0625,18.5,0.154296875,0.08837890625,0.9951171875
3,1596831667976540,-0.094970703125,0.058837890625,-0.9666748046875,-0.2305908203125,-15.4375,6.0625,-0.125,0.17724609375,-0.0126953125,0.9326171875
4,1596831667999541,-0.0941162109375,0.064453125,-0.9661865234375,-0.23150634765625,-26.125,-2.75,-3.9375,0.22216796875,-0.181640625,1.01513671875
5,1596831668029540,-0.0955810546875,0.06231689453125,-0.9658203125,-0.2327880859375,22.75,-1.125,-10.9375,0.2861328125,-0.22607421875,1.046875
6,1596831668036539,-0.09783935546875,0.0550537109375,-0.9659423828125,-0.2332763671875,43.5,-4.5625,-7.6875,0.19775390625,-0.07275390625,1.033203125
7,1596831668057541,-0.099853515625,0.0509033203125,-0.96575927734375,-0.234130859375,23.1875,-7.0625,-7.6875,0.19482421875,-0.025390625,0.99169921875
8,1596831668081542,-0.100341796875,0.0504150390625,-0.9654541015625,-0.2352294921875,2.9375,-2.25,-7.1875,0.21240234375,-0.0546875,0.97216796875
9,1596831668104540,-0.100341796875,0.05084228515625,-0.96514892578125,-0.2364501953125,-3.4375,-0.5,-6.6875,0.212890625,-0.04736328125,0.95361328125
10,1596831668117539,-0.10009765625,0.05169677734375,-0.96478271484375,-0.23773193359375,-8.8125,0.5625,-6.625,0.21533203125,-0.0107421875,0.94677734375
11,1596831668134540,-0.09967041015625,0.052978515625,-0.96441650390625,-0.23931884765625,-10.125,-0.625,-7.9375,0.19384765625,-0.0302734375,0.97265625
12,1596831668156540,-0.0992431640625,0.05340576171875,-0.964111328125,-0.24041748046875,-5.1875,-0.3125,-6.0625,0.19091796875,-0.0390625,1.00244140625
13,1596831668170541,-0.0987548828125,0.052978515625,-0.9638671875,-0.24188232421875,0.6875,2.75,-8.5,0.20849609375,-0.0556640625,0.99072265625
14,1596831668194556,-0.09844970703125,0.05242919921875,-0.963623046875,-0.24298095703125,-0.75,3.25,-6.1875,0.22607421875,-0.015625,0.99365234375
15,1596831668216558,-0.0986328125,0.051025390625,-0.9635009765625,-0.24365234375,3.8125,2.0625,-3.75,0.23681640625,0.0009765625,1.00341796875
16,1596831668237556,-0.09912109375,0.048828125,-0.96356201171875,-0.24383544921875,9.25,0.125,-1.4375,0.22265625,0.00537109375,1.02734375
17,1596831668254556,-0.0997314453125,0.04718017578125,-0.96356201171875,-0.243896484375,7.6875,-1.3125,-1.0,0.21484375,-0.01513671875,1.00537109375
18,1596831668276558,-0.10076904296875,0.0445556640625,-0.96368408203125,-0.243408203125,15.5625,-3.5,1.1875,0.20361328125,-0.0263671875,1.0166015625
19,1596831668297556,-0.10162353515625,0.043701171875,-0.96368408203125,-0.2432861328125,6.5625,-3.3125,-0.375,0.22119140625,-0.04638671875,0.95849609375
20,1596831668313556,-0.10247802734375,0.04345703125,-0.963623046875,-0.2431640625,4.125,-2.1875,-0.1875,0.2470703125,-0.0556640625,0.96826171875
21,1596831668336558,-0.1031494140625,0.04278564453125,-0.96356201171875,-0.24322509765625,4.5,-1.625,-0.875,0.2373046875,-0.0322265625,0.96435546875
22,1596831668357558,-0.1031494140625,0.0428466796875,-0.96356201171875,-0.24322509765625,-0.0625,-1.0,-0.5625,0.21337890625,-0.0400390625,0.97216796875
23,1596831668381556,-0.1031494140625,0.04327392578125,-0.9635009765625,-0.2432861328125,-1.3125,-1.375,-0.4375,0.20849609375,-0.05419921875,0.9794921875
24,1596831668396557,-0.10308837890625,0.0433349609375,-0.9635009765625,-0.2432861328125,-0.4375,-0.1875,-0.5,0.21044921875,-0.056640625,0.97607421875
25,1596831668417555,-0.1029052734375,0.043212890625,-0.9635009765625,-0.24346923828125,1.0,0.6875,-1.375,0.2138671875,-0.04443359375,0.99658203125
26,1596831668434556,-0.10308837890625,0.04248046875,-0.9635009765625,-0.24359130859375,3.5625,-0.1875,-1.125,0.22119140625,-0.0224609375,0.99365234375
27,1596831668462557,-0.103515625,0.04132080078125,-0.9635009765625,-0.24365234375,5.125,-1.0,-0.6875,0.22412109375,-0.00634765625,1.00146484375
28,1596831668477556,-0.1041259765625,0.0406494140625,-0.9635009765625,-0.2435302734375,4.75,-2.625,0.1875,0.2236328125,-0.0263671875,0.9970703125
29,1596831668494556,-0.10498046875,0.039794921875,-0.96343994140625,-0.24334716796875,5.9375,-3.25,0.0,0.2333984375,-0.02734375,1.001953125
30,1596831668516557,-0.10595703125,0.0382080078125,-0.9635009765625,-0.24298095703125,9.375,-4.75,1.1875,0.21337890625,-0.0126953125,1.033203125
31,1596831668539557,-0.10693359375,0.037109375,-0.963623046875,-0.2421875,5.4375,-7.875,4.1875,0.185546875,0.01416015625,1.06689453125
32,1596831668554557,-0.108154296875,0.03662109375,-0.96392822265625,-0.240478515625,2.0625,-11.25,9.8125,0.18505859375,0.02685546875,1.11279296875
33,1596831668582555,-0.109619140625,0.0362548828125,-0.96429443359375,-0.238525390625,-0.25,-13.1875,11.9375,0.19287109375,0.0625,1.14892578125
34,1596831668599556,-0.11090087890625,0.03680419921875,-0.9644775390625,-0.23699951171875,-4.0,-11.0625,9.75,0.22119140625,0.03173828125,1.10546875
35,1596831668613557,-0.11126708984375,0.04095458984375,-0.964599609375,-0.23583984375,-17.9375,-10.6875,8.125,0.18603515625,-0.08447265625,0.9462890625
36,1596831668636556,-0.11236572265625,0.04541015625,-0.96405029296875,-0.236572265625,-20.125,-10.8125,-3.125,0.24560546875,-0.08349609375,0.923828125
37,1596831668659557,-0.1119384765625,0.0489501953125,-0.96331787109375,-0.23895263671875,-14.3125,-1.75,-13.6875,0.24755859375,-0.15234375,0.958984375
38,1596831668673559,-0.11212158203125,0.05047607421875,-0.96270751953125,-0.2410888671875,-3.6875,-2.625,-13.0625,0.25390625,-0.1328125,1.02001953125
39,1596831668696556,-0.112060546875,0.04974365234375,-0.96234130859375,-0.24285888671875,6.375,1.375,-11.8125,0.25830078125,-0.103515625,1.05712890625
40,1596831668719556,-0.11138916015625,0.04827880859375,-0.96209716796875,-0.244384765625,7.8125,6.9375,-9.875,0.27978515625,-0.06640625,1.0859375
41,1596831668749556,-0.11065673828125,0.04547119140625,-0.96209716796875,-0.2452392578125,20.4375,5.125,-8.1875,0.232421875,-0.1328125,1.13623046875
42,1596831668756557,-0.10943603515625,0.044189453125,-0.96197509765625,-0.24658203125,9.125,5.625,-9.0,0.208984375,-0.10400390625,1.076171875
43,1596831668779559,-0.10919189453125,0.041259765625,-0.96124267578125,-0.24993896484375,19.6875,2.3125,-23.1875,0.20947265625,-0.11865234375,1.09521484375
44,1596831668793557,-0.10980224609375,0.0361328125,-0.9605712890625,-0.25299072265625,31.3125,7.75,-22.0625,0.2998046875,-0.07958984375,1.05322265625
45,1596831668816556,-0.111572265625,0.029541015625,-0.9600830078125,-0.2550048828125,37.25,3.5,-16.3125,0.2890625,0.00390625,1.01904296875
46,1596831668839556,-0.11285400390625,0.02471923828125,-0.95916748046875,-0.2584228515625,15.75,-0.125,-20.8125,0.22900390625,0.15771484375,0.97216796875
47,1596831668860556,-0.1131591796875,0.02471923828125,-0.957763671875,-0.2633056640625,-6.625,-6.1875,-28.125,0.16650390625,0.06982421875,0.97119140625
48,1596831668876557,-0.11614990234375,0.02685546875,-0.95654296875,-0.26629638671875,4.5,-16.125,-20.625,0.27001953125,-0.1943359375,0.88037109375
49,1596831668899557,-0.121826171875,0.02215576171875,-0.955322265625,-0.26849365234375,43.5,-23.4375,-20.8125,0.24365234375,-0.13818359375,0.89697265625
50,1596831668920557,-0.12860107421875,0.01483154296875,-0.95343017578125,-0.27252197265625,44.3125,-23.3125,-30.3125,0.27880859375,0.08251953125,0.888671875
51,1596831668936557,-0.1361083984375,0.00726318359375,-0.95135498046875,-0.2764892578125,40.6875,-28.0625,-28.9375,0.27685546875,0.18994140625,0.8857421875
52,1596831668959557,-0.14263916015625,0.0052490234375,-0.94927978515625,-0.2802734375,13.9375,-32.875,-24.375,0.26513671875,0.13232421875,0.8671875
53,1596831668980557,-0.149658203125,0.00390625,-0.947265625,-0.28350830078125,14.25,-32.375,-22.3125,0.3125,0.0830078125,0.794921875
54,1596831668996558,-0.15496826171875,0.00054931640625,-0.94537353515625,-0.286865234375,19.3125,-20.0,-23.0625,0.330078125,0.1494140625,0.83251953125
55,1596831669019556,-0.15869140625,-0.00177001953125,-0.9439697265625,-0.28948974609375,12.0,-14.1875,-17.9375,0.298828125,0.142578125,0.7900390625
56,1596831669040557,-0.1605224609375,-0.00323486328125,-0.9432373046875,-0.290771484375,7.9375,-4.875,-9.0625,0.32373046875,0.1181640625,0.859375
57,1596831669056558,-0.16143798828125,-0.00592041015625,-0.943115234375,-0.2906494140625,16.625,1.9375,-2.5,0.3134765625,0.0859375,0.8623046875
58,1596831669079558,-0.1622314453125,-0.0098876953125,-0.94317626953125,-0.28985595703125,21.0,4.3125,1.25,0.30419921875,0.1396484375,0.87158203125
59,1596831669100556,-0.16241455078125,-0.01202392578125,-0.94317626953125,-0.289794921875,9.875,2.4375,-1.0,0.2861328125,0.1416015625,0.91357421875
60,1596831669116557,-0.162841796875,-0.012451171875,-0.943115234375,-0.289794921875,4.75,-1.8125,-0.9375,0.2841796875,0.087890625,0.90869140625
61,1596831669139556,-0.1639404296875,-0.01361083984375,-0.94287109375,-0.289794921875,8.4375,-4.625,-1.5625,0.28564453125,0.1083984375,0.9150390625
62,1596831669160556,-0.16534423828125,-0.01458740234375,-0.942626953125,-0.289794921875,3.875,-6.125,-0.1875,0.27587890625,0.1708984375,0.86376953125
63,1596831669176557,-0.166259765625,-0.01422119140625,-0.94232177734375,-0.290283203125,-5.5,-4.875,-1.375,0.298828125,0.1806640625,0.8671875
64,1596831669199556,-0.16650390625,-0.01312255859375,-0.9422607421875,-0.29046630859375,-5.6875,-3.5625,-0.1875,0.29296875,0.1181640625,0.91796875
65,1596831669220556,-0.16668701171875,-0.0130615234375,-0.94244384765625,-0.28961181640625,4.0625,-2.0625,4.1875,0.29443359375,0.0703125,0.9599609375
66,1596831669236574,-0.16778564453125,-0.01513671875,-0.9427490234375,-0.2879638671875,14.5,-1.0625,7.5625,0.3154296875,0.12353515625,0.92431640625
67,1596831669259571,-0.1690673828125,-0.0169677734375,-0.94256591796875,-0.28759765625,6.9375,-3.125,1.4375,0.32177734375,0.2109375,0.9384765625
68,1596831669280572,-0.1695556640625,-0.01531982421875,-0.94244384765625,-0.2879638671875,-9.9375,-5.875,0.125,0.30224609375,0.146484375,0.92724609375
69,1596831669296571,-0.1697998046875,-0.01361083984375,-0.94244384765625,-0.28790283203125,-7.6875,-3.375,1.5,0.31640625,0.10595703125,0.93115234375
70,1596831669319571,-0.17010498046875,-0.0137939453125,-0.9425048828125,-0.28741455078125,1.4375,-1.25,2.5625,0.3115234375,0.12890625,0.93310546875
71,1596831669340574,-0.170166015625,-0.01470947265625,-0.9425048828125,-0.287353515625,2.25,1.875,0.3125,0.32080078125,0.1650390625,0.94677734375
72,1596831669356572,-0.16961669921875,-0.01409912109375,-0.94256591796875,-0.28753662109375,-5.9375,1.625,0.25,0.306640625,0.14599609375,0.93896484375
73,1596831669379575,-0.16912841796875,-0.013427734375,-0.94256591796875,-0.28778076171875,-4.3125,0.1875,-0.75,0.29931640625,0.12060546875,0.9677734375
74,1596831669400571,-0.16900634765625,-0.01312255859375,-0.942626953125,-0.287841796875,-1.5625,0.0625,0.0,0.3095703125,0.11767578125,0.94970703125
75,1596831669416572,-0.1688232421875,-0.0128173828125,-0.94256591796875,-0.2879638671875,-2.125,0.8125,-0.8125,0.31884765625,0.11962890625,0.94677734375
76,1596831669439571,-0.16839599609375,-0.0130615234375,-0.942626953125,-0.2880859375,1.25,1.9375,-0.8125,0.302734375,0.1142578125,0.9541015625
77,1596831669460574,-0.1680908203125,-0.0128173828125,-0.94268798828125,-0.28814697265625,-1.4375,0.25,-0.25,0.291015625,0.1123046875,0.93701171875
78,1596831669476572,-0.167724609375,-0.0130615234375,-0.94268798828125,-0.288330078125,2.75,2.0,-1.6875,0.31103515625,0.09228515625,0.96826171875
79,1596831669499571,-0.16754150390625,-0.014404296875,-0.94268798828125,-0.28826904296875,6.0625,2.9375,-0.875,0.30126953125,0.1337890625,0.9365234375
80,1596831669527572,-0.1671142578125,-0.01507568359375,-0.9427490234375,-0.28826904296875,1.9375,2.875,-0.1875,0.30224609375,0.13818359375,0.955078125
81,1596831669536574,-0.16644287109375,-0.0147705078125,-0.94287109375,-0.28826904296875,-1.625,3.3125,0.0625,0.3046875,0.1064453125,0.9365234375
82,1596831669559573,-0.1656494140625,-0.01458740234375,-0.943115234375,-0.2880859375,-0.625,4.3125,0.75,0.30908203125,0.1025390625,0.9619140625
83,1596831669580573,-0.1649169921875,-0.01409912109375,-0.9432373046875,-0.28814697265625,-3.0625,3.0,0.1875,0.29931640625,0.10693359375,0.93896484375
84,1596831669595571,-0.16424560546875,-0.01373291015625,-0.9432373046875,-0.28839111328125,-3.25,4.0625,-1.1875,0.318359375,0.12060546875,0.95556640625
85,1596831669619571,-0.16326904296875,-0.013671875,-0.94342041015625,-0.28839111328125,-2.75,4.4375,0.4375,0.28857421875,0.12744140625,0.94921875
86,1596831669641572,-0.16217041015625,-0.0130615234375,-0.9437255859375,-0.2880859375,-2.4375,4.3125,2.0,0.29052734375,0.083984375,0.96337890625
87,1596831669656570,-0.161865234375,-0.0133056640625,-0.9437255859375,-0.28814697265625,1.6875,1.9375,-0.9375,0.294921875,0.10302734375,0.94482421875
88,1596831669679573,-0.16162109375,-0.013671875,-0.9437255859375,-0.288330078125,1.625,1.625,-1.1875,0.29443359375,0.11669921875,0.9482421875
89,1596831669701572,-0.161376953125,-0.01348876953125,-0.9437255859375,-0.28851318359375,-3.4375,0.6875,-0.4375,0.2890625,0.14208984375,0.94384765625
90,1596831669716572,-0.1607666015625,-0.01226806640625,-0.94378662109375,-0.2886962890625,-5.6875,0.5625,-0.3125,0.2861328125,0.08544921875,0.94482421875
91,1596831669739572,-0.16094970703125,-0.0126953125,-0.94384765625,-0.2884521484375,2.4375,-0.1875,0.8125,0.28857421875,0.11865234375,0.92626953125
92,1596831669761574,-0.16070556640625,-0.01214599609375,-0.94384765625,-0.28851318359375,-4.375,-0.125,0.5625,0.28662109375,0.12451171875,0.93408203125
93,1596831669776572,-0.16064453125,-0.011474609375,-0.94384765625,-0.28863525390625,-3.5625,-1.375,-0.0625,0.28125,0.10986328125,0.93994140625
94,1596831669799571,-0.16082763671875,-0.01104736328125,-0.94378662109375,-0.2886962890625,-0.9375,-1.8125,-0.4375,0.29443359375,0.09423828125,0.93408203125
95,1596831669821574,-0.16119384765625,-0.0111083984375,-0.94378662109375,-0.2884521484375,1.75,-1.375,1.0625,0.29931640625,0.10302734375,0.93359375
96,1596831669836571,-0.16168212890625,-0.01171875,-0.9437255859375,-0.28839111328125,3.875,-1.1875,-0.5,0.30078125,0.11376953125,0.9326171875
97,1596831669859572,-0.161865234375,-0.011962890625,-0.94366455078125,-0.2884521484375,1.375,-1.0,-0.375,0.29541015625,0.12109375,0.951171875
98,1596831669881572,-0.16204833984375,-0.0118408203125,-0.943603515625,-0.28857421875,-0.75,-1.1875,-0.6875,0.29541015625,0.119140625,0.9423828125
99,1596831669895572,-0.162353515625,-0.011962890625,-0.94354248046875,-0.28857421875,1.0625,-1.25,-0.3125,0.30419921875,0.11376953125,0.94921875
