index,timestamp,orientation_x,orientation_y,orientation_z,orientation_w,gyroscope_x,gyroscope_y,gyroscope_z,acceleration_x,acceleration_y,acceleration_z
0,1598009909328548,-0.22894287109375,-0.15234375,0.20989990234375,0.938232421875,-5.0,-44.6875,-25.3125,0.177734375,-0.60009765625,0.9658203125
1,1598009909350679,-0.225341796875,-0.1591796875,0.207763671875,0.93841552734375,11.0625,-39.8125,-25.125,0.1826171875,-0.52490234375,0.8671875
2,1598009909373747,-0.22113037109375,-0.1663818359375,0.2060546875,0.93853759765625,13.25,-43.6875,-23.9375,0.20166015625,-0.5390625,0.9169921875
3,1598009909388720,-0.2188720703125,-0.1702880859375,0.20404052734375,0.9388427734375,7.5,-20.8125,-18.9375,0.27685546875,-0.60498046875,1.02880859375
4,1598009909416717,-0.2171630859375,-0.17218017578125,0.20330810546875,0.93902587890625,8.1875,-14.4375,-10.375,0.208984375,-0.56591796875,0.947265625
5,1598009909431720,-0.21551513671875,-0.17364501953125,0.20330810546875,0.93914794921875,3.5625,-13.875,-4.9375,0.1845703125,-0.44873046875,0.90771484375
6,1598009909447725,-0.21612548828125,-0.17620849609375,0.2027587890625,0.93865966796875,-11.0625,-16.5,-6.125,0.18701171875,-0.42626953125,0.8583984375
7,1598009909470664,-0.21875,-0.18048095703125,0.20184326171875,0.93743896484375,-20.0,-21.6875,-7.375,0.2216796875,-0.4970703125,0.82177734375
8,1598009909491828,-0.2196044921875,-0.1854248046875,0.200927734375,0.93646240234375,-8.8125,-24.8125,-9.8125,0.255859375,-0.52880859375,0.79248046875
9,1598009909508619,-0.21624755859375,-0.18939208984375,0.20025634765625,0.93658447265625,16.0625,-21.5,-11.75,0.32421875,-0.5498046875,0.86474609375
10,1598009909530898,-0.21124267578125,-0.190185546875,0.2000732421875,0.9376220703125,31.1875,-0.875,-5.625,0.45361328125,-0.63330078125,1.00048828125
11,1598009909551618,-0.20562744140625,-0.18658447265625,0.2027587890625,0.93902587890625,41.125,13.8125,11.75,0.3291015625,-0.53564453125,0.908203125
12,1598009909568621,-0.1988525390625,-0.1822509765625,0.205810546875,0.940673828125,37.0,5.875,11.125,0.15380859375,-0.32666015625,0.921875
13,1598009909590867,-0.19696044921875,-0.18096923828125,0.20513916015625,0.94146728515625,2.625,0.9375,-4.9375,0.19580078125,-0.333984375,0.93798828125
14,1598009909611617,-0.1993408203125,-0.18194580078125,0.20404052734375,0.94097900390625,-14.9375,-2.125,-4.5,0.27490234375,-0.494140625,0.91455078125
15,1598009909628620,-0.19921875,-0.181640625,0.2044677734375,0.94097900390625,3.9375,1.4375,2.1875,0.28857421875,-0.52294921875,0.91552734375
16,1598009909650620,-0.1968994140625,-0.18017578125,0.20458984375,0.94171142578125,15.5625,4.0,-2.0,0.24072265625,-0.474609375,0.90478515625
17,1598009909664936,-0.19586181640625,-0.17926025390625,0.20452880859375,0.942138671875,4.9375,0.4375,-2.375,0.20849609375,-0.4287109375,0.900390625
18,1598009909687926,-0.19580078125,-0.17950439453125,0.2042236328125,0.94219970703125,-1.3125,-1.875,-2.3125,0.24560546875,-0.43359375,0.8681640625
19,1598009909710927,-0.1966552734375,-0.17987060546875,0.20361328125,0.94207763671875,-5.25,0.0,-2.375,0.2685546875,-0.45458984375,0.865234375
20,1598009909724926,-0.19842529296875,-0.18011474609375,0.203125,0.9417724609375,-10.5,0.4375,-1.375,0.251953125,-0.45849609375,0.8759765625
21,1598009909748300,-0.2000732421875,-0.1805419921875,0.202880859375,0.94134521484375,-10.8125,-2.8125,-0.3125,0.2392578125,-0.462890625,0.89794921875
22,1598009909770771,-0.20147705078125,-0.1815185546875,0.20257568359375,0.94091796875,-10.375,-3.25,-0.4375,0.27197265625,-0.447265625,0.8701171875
23,1598009909791986,-0.20245361328125,-0.1824951171875,0.20220947265625,0.94061279296875,-12.0,-4.4375,-0.4375,0.27734375,-0.41357421875,0.921875
24,1598009909807764,-0.20538330078125,-0.18341064453125,0.2022705078125,0.9398193359375,-20.8125,-3.6875,3.3125,0.25830078125,-0.44580078125,0.9189453125
25,1598009909830762,-0.208740234375,-0.18426513671875,0.20196533203125,0.93896484375,-23.5625,-3.0625,1.875,0.26416015625,-0.4697265625,0.9365234375
26,1598009909851765,-0.2132568359375,-0.1849365234375,0.20135498046875,0.93792724609375,-27.25,1.9375,2.4375,0.2841796875,-0.4951171875,0.8916015625
27,1598009909868575,-0.2176513671875,-0.18450927734375,0.20074462890625,0.9371337890625,-26.1875,7.625,3.5,0.28857421875,-0.50146484375,0.9111328125
28,1598009909890948,-0.221923828125,-0.18243408203125,0.2010498046875,0.93646240234375,-19.75,14.0,8.5,0.26318359375,-0.56298828125,0.91650390625
29,1598009909911957,-0.22613525390625,-0.1793212890625,0.20196533203125,0.93585205078125,-14.75,19.5625,12.6875,0.25927734375,-0.60595703125,0.9052734375
30,1598009909927949,-0.22833251953125,-0.1746826171875,0.20318603515625,0.93597412109375,-1.6875,28.125,15.125,0.29638671875,-0.6064453125,0.91259765625
31,1598009909950945,-0.230224609375,-0.168212890625,0.205322265625,0.93621826171875,0.3125,35.875,22.0,0.25830078125,-0.53466796875,0.8798828125
32,1598009909972074,-0.23529052734375,-0.1602783203125,0.2083740234375,0.9356689453125,-14.5625,41.5,30.5625,0.1708984375,-0.55712890625,0.888671875
33,1598009909987248,-0.2398681640625,-0.15155029296875,0.21112060546875,0.93536376953125,-12.5,46.0625,29.75,0.1650390625,-0.55859375,0.92626953125
34,1598009910010883,-0.24261474609375,-0.14227294921875,0.2142333984375,0.93536376953125,0.4375,48.3125,31.4375,0.1689453125,-0.58447265625,0.9248046875
35,1598009910032079,-0.24468994140625,-0.1317138671875,0.2181396484375,0.93548583984375,4.0625,54.5,37.4375,0.16357421875,-0.56005859375,0.94091796875
36,1598009910047076,-0.24774169921875,-0.11993408203125,0.222412109375,0.935302734375,0.5,62.1875,42.9375,0.15283203125,-0.5712890625,0.9599609375
37,1598009910071074,-0.2520751953125,-0.1068115234375,0.22705078125,0.9345703125,-5.3125,68.0625,47.25,0.083984375,-0.5615234375,0.94677734375
38,1598009910092074,-0.2579345703125,-0.093505859375,0.23150634765625,0.93328857421875,-15.8125,67.9375,46.25,0.00146484375,-0.5244140625,0.91552734375
39,1598009910107071,-0.263916015625,-0.08111572265625,0.23583984375,0.93170166015625,-17.625,63.375,44.8125,-0.033203125,-0.50830078125,0.8662109375
40,1598009910131072,-0.2694091796875,-0.0699462890625,0.23974609375,0.9300537109375,-15.8125,58.375,41.1875,-0.03125,-0.53955078125,0.87646484375
41,1598009910152077,-0.27392578125,-0.06036376953125,0.24285888671875,0.9285888671875,-10.8125,53.25,36.0625,-0.00146484375,-0.548828125,0.830078125
42,1598009910167502,-0.27691650390625,-0.05126953125,0.2459716796875,0.92742919921875,-1.9375,48.6875,34.3125,-0.013671875,-0.54833984375,0.80224609375
43,1598009910191352,-0.27850341796875,-0.04278564453125,0.24884033203125,0.9266357421875,3.75,43.3125,30.8125,-0.04345703125,-0.513671875,0.78515625
44,1598009910213083,-0.27996826171875,-0.03564453125,0.25103759765625,0.9259033203125,2.3125,35.375,24.0625,-0.078125,-0.49560546875,0.76025390625
45,1598009910227085,-0.281494140625,-0.0303955078125,0.252685546875,0.9251708984375,-1.1875,27.125,18.5625,-0.0810546875,-0.4970703125,0.76416015625
46,1598009910251077,-0.282958984375,-0.0269775390625,0.2540283203125,0.9244384765625,-1.375,19.625,15.3125,-0.0595703125,-0.52734375,0.76904296875
47,1598009910273286,-0.28363037109375,-0.02447509765625,0.2548828125,0.924072265625,1.5,14.375,10.4375,-0.06494140625,-0.53369140625,0.78173828125
48,1598009910287085,-0.2838134765625,-0.02301025390625,0.25518798828125,0.92401123046875,2.875,9.125,5.1875,-0.06591796875,-0.52978515625,0.771484375
49,1598009910310817,-0.28369140625,-0.02252197265625,0.25518798828125,0.92401123046875,2.5625,4.0625,2.0,-0.06787109375,-0.51806640625,0.78125
50,1598009910333070,-0.2833251953125,-0.02252197265625,0.25543212890625,0.924072265625,2.6875,-0.4375,1.75,-0.0869140625,-0.51953125,0.79736328125
51,1598009910347614,-0.282958984375,-0.0234375,0.25567626953125,0.92413330078125,2.4375,-5.1875,0.0,-0.08837890625,-0.53857421875,0.79736328125
52,1598009910370220,-0.28277587890625,-0.02471923828125,0.255126953125,0.92425537109375,0.75,-3.75,-3.25,-0.0546875,-0.54248046875,0.80419921875
53,1598009910393182,-0.28240966796875,-0.02532958984375,0.25439453125,0.924560546875,1.25,0.8125,-3.3125,-0.03955078125,-0.51904296875,0.82275390625
54,1598009910408086,-0.28240966796875,-0.025390625,0.25396728515625,0.9246826171875,0.6875,1.5,-1.625,-0.07421875,-0.55078125,0.83544921875
55,1598009910431076,-0.28326416015625,-0.025634765625,0.253662109375,0.92449951171875,-4.0,0.75,-1.6875,-0.091796875,-0.54931640625,0.83203125
56,1598009910453080,-0.28387451171875,-0.02618408203125,0.253173828125,0.9244384765625,-4.875,-0.6875,-2.75,-0.08642578125,-0.5341796875,0.84521484375
57,1598009910467081,-0.2847900390625,-0.02655029296875,0.25286865234375,0.92425537109375,-6.0625,0.4375,-1.375,-0.08642578125,-0.5615234375,0.87548828125
58,1598009910490074,-0.28594970703125,-0.02679443359375,0.2528076171875,0.92388916015625,-6.1875,0.1875,-0.125,-0.10498046875,-0.583984375,0.873046875
59,1598009910513069,-0.28582763671875,-0.026611328125,0.2530517578125,0.923828125,0.875,-1.4375,0.375,-0.130859375,-0.5712890625,0.87646484375
60,1598009910528610,-0.2852783203125,-0.02655029296875,0.2532958984375,0.9239501953125,3.125,-2.6875,-0.1875,-0.130859375,-0.564453125,0.87841796875
61,1598009910551073,-0.28436279296875,-0.0267333984375,0.25335693359375,0.92425537109375,3.3125,-3.9375,-1.5625,-0.12841796875,-0.5478515625,0.89453125
62,1598009910573325,-0.2838134765625,-0.02685546875,0.25347900390625,0.92437744140625,0.8125,-2.5,-0.8125,-0.11328125,-0.5322265625,0.87646484375
63,1598009910594317,-0.2843017578125,-0.027099609375,0.2535400390625,0.9241943359375,-4.3125,-1.5,-0.3125,-0.115234375,-0.548828125,0.8779296875
64,1598009910610320,-0.28472900390625,-0.02728271484375,0.25360107421875,0.92401123046875,-2.75,-1.375,-0.0625,-0.10986328125,-0.56640625,0.873046875
65,1598009910633325,-0.2840576171875,-0.027099609375,0.253662109375,0.9241943359375,4.6875,-0.4375,-0.125,-0.1083984375,-0.57470703125,0.87939453125
66,1598009910647319,-0.2830810546875,-0.026611328125,0.25360107421875,0.924560546875,5.4375,0.375,-0.875,-0.10986328125,-0.5439453125,0.875
67,1598009910671320,-0.2828369140625,-0.0263671875,0.25360107421875,0.92462158203125,0.1875,1.0625,0.0625,-0.09814453125,-0.533203125,0.87353515625
68,1598009910693412,-0.28369140625,-0.026123046875,0.253662109375,0.92437744140625,-3.375,2.5,1.3125,-0.0966796875,-0.576171875,0.87060546875
69,1598009910714319,-0.2835693359375,-0.02557373046875,0.2537841796875,0.92437744140625,2.0625,1.5625,0.9375,-0.11767578125,-0.564453125,0.85546875
70,1598009910730323,-0.28265380859375,-0.025390625,0.25384521484375,0.92462158203125,5.8125,-1.0,-0.0625,-0.10986328125,-0.55029296875,0.859375
71,1598009910753320,-0.28173828125,-0.02557373046875,0.25396728515625,0.92486572265625,4.5625,-2.25,0.0,-0.08935546875,-0.54052734375,0.85498046875
72,1598009910774322,-0.28118896484375,-0.02569580078125,0.2540283203125,0.925048828125,3.75,-1.1875,0.1875,-0.09521484375,-0.55517578125,0.8525390625
73,1598009910790878,-0.28082275390625,-0.0255126953125,0.254150390625,0.92510986328125,2.3125,-0.0625,0.5,-0.10205078125,-0.54736328125,0.869140625
74,1598009910813428,-0.28057861328125,-0.02532958984375,0.2542724609375,0.9251708984375,1.3125,-0.0625,0.5625,-0.1044921875,-0.53857421875,0.85546875
75,1598009910834316,-0.28057861328125,-0.02532958984375,0.2542724609375,0.9251708984375,0.375,0.9375,-0.6875,-0.1015625,-0.5390625,0.85693359375
76,1598009910850960,-0.28057861328125,-0.02532958984375,0.2542724609375,0.9251708984375,0.3125,-0.0625,-0.5,-0.09326171875,-0.54736328125,0.86376953125
77,1598009910873325,-0.28033447265625,-0.02520751953125,0.25421142578125,0.92523193359375,1.375,0.6875,-0.1875,-0.09765625,-0.5458984375,0.873046875
78,1598009910894319,-0.280517578125,-0.02520751953125,0.2542724609375,0.9251708984375,-1.3125,-0.375,0.0,-0.10498046875,-0.54150390625,0.85693359375
79,1598009910910317,-0.28082275390625,-0.02545166015625,0.25396728515625,0.9251708984375,-1.5,-0.1875,-1.625,-0.09228515625,-0.54296875,0.84326171875
80,1598009910933322,-0.28033447265625,-0.025634765625,0.25390625,0.92535400390625,1.75,-0.875,-0.8125,-0.08642578125,-0.53955078125,0.87451171875
81,1598009910954335,-0.2799072265625,-0.025634765625,0.25396728515625,0.9254150390625,2.875,-0.9375,0.0625,-0.1044921875,-0.55615234375,0.8671875
82,1598009910970325,-0.27935791015625,-0.025634765625,0.25384521484375,0.9256591796875,2.6875,-1.5625,-1.625,-0.11083984375,-0.52490234375,0.84814453125
83,1598009910993463,-0.279052734375,-0.02606201171875,0.253662109375,0.92578125,0.625,-2.0,-1.9375,-0.08740234375,-0.53466796875,0.857421875
84,1598009911014328,-0.27899169921875,-0.02685546875,0.25341796875,0.92584228515625,-0.4375,-3.0625,-2.0625,-0.078125,-0.5283203125,0.8330078125
85,1598009911030328,-0.27874755859375,-0.0277099609375,0.2530517578125,0.92596435546875,0.5625,-3.9375,-3.3125,-0.0859375,-0.5400390625,0.84912109375
86,1598009911054539,-0.27850341796875,-0.02880859375,0.2525634765625,0.9261474609375,0.375,-5.375,-4.625,-0.087890625,-0.54248046875,0.84375
87,1598009911074402,-0.2781982421875,-0.0299072265625,0.25201416015625,0.9263916015625,-0.1875,-7.0625,-6.0,-0.1142578125,-0.53564453125,0.86865234375
88,1598009911090430,-0.27838134765625,-0.03167724609375,0.251708984375,0.92633056640625,-3.3125,-8.5,-4.1875,-0.08056640625,-0.548828125,0.8544921875
89,1598009911113600,-0.27850341796875,-0.033203125,0.251220703125,0.9263916015625,-2.5625,-6.6875,-4.8125,-0.0732421875,-0.556640625,0.87255859375
90,1598009911134370,-0.2781982421875,-0.03436279296875,0.25067138671875,0.92657470703125,-0.1875,-5.8125,-5.0625,-0.07666015625,-0.54638671875,0.86865234375
91,1598009911151319,-0.2772216796875,-0.03558349609375,0.24993896484375,0.927001953125,3.5625,-6.1875,-6.5625,-0.06689453125,-0.52490234375,0.849609375
92,1598009911173587,-0.27655029296875,-0.0369873046875,0.24920654296875,0.9273681640625,0.875,-7.375,-6.875,-0.07568359375,-0.54638671875,0.888671875
93,1598009911195588,-0.27752685546875,-0.03826904296875,0.2490234375,0.92706298828125,-5.8125,-6.1875,-2.9375,-0.09033203125,-0.60009765625,0.908203125
94,1598009911210586,-0.27789306640625,-0.03863525390625,0.2490234375,0.92694091796875,-1.875,-1.5,-0.3125,-0.07080078125,-0.56640625,0.8671875
95,1598009911233276,-0.27716064453125,-0.03851318359375,0.24847412109375,0.92730712890625,3.6875,0.125,-3.8125,-0.07421875,-0.541015625,0.875
96,1598009911255588,-0.27691650390625,-0.03863525390625,0.24835205078125,0.92742919921875,1.4375,-1.375,-1.3125,-0.07568359375,-0.55615234375,0.87353515625
97,1598009911270628,-0.27581787109375,-0.0389404296875,0.24810791015625,0.92779541015625,6.25,-2.6875,-2.625,-0.07080078125,-0.55419921875,0.8701171875
98,1598009911292625,-0.27392578125,-0.0391845703125,0.24786376953125,0.92840576171875,9.5625,-3.875,-3.3125,-0.06982421875,-0.52880859375,0.875
99,1598009911315628,-0.27276611328125,-0.0396728515625,0.2479248046875,0.9287109375,5.0,-5.4375,-2.125,-0.08544921875,-0.52587890625,0.8798828125
100,1598009911329635,-0.27239990234375,-0.04046630859375,0.248046875,0.92877197265625,0.75,-6.0625,-1.1875,-0.07666015625,-0.53369140625,0.86181640625
