index,timestamp,orientation_x,orientation_y,orientation_z,orientation_w,gyroscope_x,gyroscope_y,gyroscope_z,acceleration_x,acceleration_y,acceleration_z
0,1596831675776650,-0.0870361328125,0.06317138671875,-0.96429443359375,-0.24212646484375,-15.3125,-16.6875,9.75,0.16259765625,-0.1162109375,1.08203125
1,1596831675799646,-0.08892822265625,0.066650390625,-0.964111328125,-0.24127197265625,-14.75,-17.4375,4.75,0.1923828125,-0.115234375,1.068359375
2,1596831675814646,-0.09100341796875,0.07012939453125,-0.96368408203125,-0.24114990234375,-13.6875,-18.5625,0.5,0.19189453125,-0.13818359375,1.02197265625
3,1596831675836647,-0.0933837890625,0.07305908203125,-0.9632568359375,-0.24114990234375,-12.5,-21.5,-0.75,0.17431640625,-0.11328125,1.0546875
4,1596831675857647,-0.0965576171875,0.07489013671875,-0.962646484375,-0.2418212890625,-4.4375,-27.125,-5.9375,0.1328125,-0.12939453125,1.03271484375
5,1596831675874652,-0.10162353515625,0.07708740234375,-0.9615478515625,-0.24334716796875,1.9375,-40.5,-13.6875,0.10302734375,-0.22705078125,1.00732421875
6,1596831675896647,-0.11016845703125,0.0765380859375,-0.9598388671875,-0.24664306640625,16.75,-54.625,-26.75,0.140625,-0.16796875,1.0439453125
7,1596831675917650,-0.11358642578125,0.07159423828125,-0.958740234375,-0.25079345703125,41.1875,25.5625,-29.0,1.0283203125,-0.33349609375,1.91845703125
8,1596831675934647,-0.11114501953125,0.066650390625,-0.96044921875,-0.2467041015625,8.0625,-0.5625,25.9375,-0.08544921875,0.2138671875,0.86083984375
9,1596831675957647,-0.109130859375,0.06304931640625,-0.96136474609375,-0.24493408203125,3.0625,-2.5625,11.9375,0.0166015625,0.14599609375,1.14697265625
10,1596831675977648,-0.108642578125,0.075927734375,-0.95916748046875,-0.24993896484375,-72.8125,-8.8125,-22.75,0.32763671875,-0.13330078125,0.93994140625
11,1596831675994647,-0.1099853515625,0.07843017578125,-0.9586181640625,-0.25067138671875,2.75,-2.4375,-6.6875,0.3759765625,-0.318359375,0.9580078125
12,1596831676016648,-0.11212158203125,0.0712890625,-0.95904541015625,-0.25030517578125,36.25,-2.1875,-1.3125,0.2412109375,0.00927734375,0.9794921875
13,1596831676037645,-0.1126708984375,0.0694580078125,-0.95904541015625,-0.25054931640625,0.125,-3.5625,-0.5,0.18994140625,0.08544921875,0.91357421875
14,1596831676053647,-0.1124267578125,0.0706787109375,-0.9586181640625,-0.25201416015625,-13.0625,-0.375,-6.5,0.2333984375,-0.00439453125,0.91943359375
15,1596831676084647,-0.1123046875,0.07183837890625,-0.958251953125,-0.2530517578125,-9.375,3.5625,-4.5625,0.31494140625,-0.05322265625,0.94775390625
16,1596831676097646,-0.11187744140625,0.07147216796875,-0.958251953125,-0.25347900390625,-1.3125,4.9375,-1.5,0.27734375,-0.041015625,0.95703125
17,1596831676114647,-0.1112060546875,0.07080078125,-0.95831298828125,-0.25372314453125,-0.25,5.375,-0.6875,0.263671875,-0.04248046875,0.9833984375
18,1596831676136647,-0.110595703125,0.0706787109375,-0.95843505859375,-0.25360107421875,-0.9375,3.3125,1.1875,0.25146484375,-0.0703125,0.99609375
19,1596831676157648,-0.110107421875,0.06988525390625,-0.9586181640625,-0.253173828125,4.0,4.0625,2.125,0.26171875,-0.08544921875,1.015625
20,1596831676174649,-0.1097412109375,0.06756591796875,-0.95892333984375,-0.25286865234375,14.3125,3.0625,0.3125,0.21826171875,-0.1015625,1.0029296875
21,1596831676196650,-0.1104736328125,0.0640869140625,-0.95916748046875,-0.2525634765625,18.6875,1.25,-0.125,0.25390625,-0.046875,0.99951171875
22,1596831676217647,-0.1109619140625,0.0609130859375,-0.95947265625,-0.25201416015625,17.25,1.4375,1.5625,0.24365234375,-0.04248046875,0.99267578125
23,1596831676234647,-0.1109619140625,0.05804443359375,-0.9598388671875,-0.251220703125,15.75,0.8125,3.0,0.20947265625,-0.04931640625,1.0263671875
24,1596831676256647,-0.111083984375,0.05535888671875,-0.96014404296875,-0.25048828125,15.75,0.25,2.375,0.21728515625,-0.0625,1.0517578125
25,1596831676279648,-0.1119384765625,0.052978515625,-0.96044921875,-0.2496337890625,13.1875,-2.1875,3.875,0.24560546875,-0.01806640625,1.02490234375
26,1596831676294647,-0.11309814453125,0.05084228515625,-0.96075439453125,-0.2481689453125,8.5625,-7.9375,7.75,0.2041015625,0.03466796875,1.0693359375
27,1596831676316650,-0.11492919921875,0.046630859375,-0.96160888671875,-0.24493408203125,22.0625,-10.5,17.125,0.1904296875,0.0537109375,1.10888671875
28,1596831676346649,-0.117431640625,0.0421142578125,-0.96258544921875,-0.24072265625,34.3125,-9.4375,20.125,0.23486328125,-0.07177734375,1.00439453125
29,1596831676353646,-0.12115478515625,0.04083251953125,-0.96270751953125,-0.23858642578125,20.0,-15.125,8.625,0.30126953125,-0.1142578125,0.9169921875
30,1596831676376648,-0.1243896484375,0.0377197265625,-0.9627685546875,-0.2373046875,28.125,-10.25,2.875,0.30908203125,-0.09326171875,0.96240234375
31,1596831676406647,-0.12664794921875,0.03204345703125,-0.963134765625,-0.2353515625,39.125,-6.0,5.875,0.2529296875,-0.052734375,1.00732421875
32,1596831676420649,-0.1279296875,0.0272216796875,-0.96343994140625,-0.23406982421875,33.375,-0.9375,2.4375,0.27294921875,-0.05322265625,1.041015625
33,1596831676436647,-0.12799072265625,0.0225830078125,-0.96380615234375,-0.23297119140625,28.75,8.5,2.3125,0.33740234375,-0.0166015625,1.12548828125
34,1596831676465645,-0.125732421875,0.01776123046875,-0.9644775390625,-0.2318115234375,25.75,16.5625,3.9375,0.26220703125,0.01416015625,1.16357421875
35,1596831676480646,-0.12249755859375,0.01507568359375,-0.965087890625,-0.231201171875,10.25,15.25,3.0,0.189453125,0.03955078125,1.13818359375
36,1596831676496647,-0.1195068359375,0.0145263671875,-0.96527099609375,-0.23193359375,4.4375,12.0625,-5.375,0.1962890625,-0.05224609375,1.13916015625
37,1596831676519648,-0.11773681640625,0.01312255859375,-0.965087890625,-0.23382568359375,9.125,7.25,-12.625,0.2041015625,-0.0400390625,1.11376953125
38,1596831676540649,-0.11724853515625,0.00970458984375,-0.9644775390625,-0.236572265625,19.0625,5.6875,-19.0,0.2275390625,-0.00439453125,1.0361328125
39,1596831676556648,-0.11798095703125,0.00555419921875,-0.963623046875,-0.2398681640625,19.875,-0.0625,-21.6875,0.21630859375,0.0712890625,0.97607421875
40,1596831676579647,-0.11920166015625,0.00177001953125,-0.96258544921875,-0.24359130859375,17.5,-0.5625,-24.0625,0.2412109375,0.09130859375,0.94287109375
41,1596831676600645,-0.12042236328125,-0.00048828125,-0.96142578125,-0.24749755859375,11.3125,-3.4375,-24.6875,0.240234375,0.05810546875,0.9521484375
42,1596831676616647,-0.12225341796875,-0.001708984375,-0.9598388671875,-0.2525634765625,3.25,-4.625,-30.75,0.29345703125,0.1005859375,0.90673828125
43,1596831676639647,-0.1246337890625,-0.003662109375,-0.9583740234375,-0.25689697265625,9.4375,-7.375,-27.1875,0.27490234375,0.09130859375,0.89404296875
44,1596831676660645,-0.126953125,-0.0062255859375,-0.95721435546875,-0.2601318359375,14.875,-7.0625,-21.5,0.251953125,0.06884765625,0.84716796875
45,1596831676676648,-0.130859375,-0.01171875,-0.9560546875,-0.2623291015625,28.0625,-12.625,-16.25,0.22998046875,0.171875,0.8203125
46,1596831676699646,-0.13494873046875,-0.01605224609375,-0.9544677734375,-0.26568603515625,23.1875,-14.4375,-23.0625,0.2509765625,0.1494140625,0.81591796875
47,1596831676720647,-0.13848876953125,-0.015869140625,-0.953125,-0.268798828125,5.3125,-19.0625,-19.5625,0.26220703125,0.04736328125,0.873046875
48,1596831676736648,-0.1441650390625,-0.01806640625,-0.95220947265625,-0.26873779296875,39.5625,-28.875,-7.375,0.25048828125,-0.17236328125,0.9423828125
49,1596831676759648,-0.15380859375,-0.02734375,-0.95001220703125,-0.27056884765625,67.6875,-39.625,-21.25,0.28369140625,0.08251953125,0.9345703125
50,1596831676780646,-0.16571044921875,-0.0404052734375,-0.94622802734375,-0.27496337890625,68.5625,-43.5625,-34.875,0.3212890625,0.40966796875,0.79150390625
51,1596831676804647,-0.17401123046875,-0.040283203125,-0.94415283203125,-0.277099609375,4.9375,-47.8125,-10.875,0.2373046875,0.224609375,0.73681640625
52,1596831676819647,-0.1783447265625,-0.0379638671875,-0.9429931640625,-0.2786865234375,-6.625,-22.625,-8.25,0.37255859375,0.146484375,0.82861328125
53,1596831676840647,-0.1812744140625,-0.03936767578125,-0.9423828125,-0.27862548828125,15.125,-11.75,-2.875,0.326171875,0.1171875,0.8486328125
54,1596831676856716,-0.18341064453125,-0.04168701171875,-0.94195556640625,-0.2783203125,12.0,-7.5625,0.375,0.318359375,0.23779296875,0.8828125
55,1596831676880714,-0.1842041015625,-0.0406494140625,-0.94183349609375,-0.27838134765625,-8.8125,-5.6875,1.9375,0.3173828125,0.23681640625,0.8984375
56,1596831676900714,-0.18377685546875,-0.03729248046875,-0.94189453125,-0.27886962890625,-15.75,-3.4375,-0.1875,0.30712890625,0.11181640625,0.88623046875
57,1596831676916715,-0.18426513671875,-0.038330078125,-0.94195556640625,-0.27825927734375,6.1875,0.25,2.25,0.32958984375,0.177734375,0.89013671875
58,1596831676939714,-0.1839599609375,-0.03973388671875,-0.94195556640625,-0.27813720703125,-0.5625,4.0,1.75,0.31201171875,0.28564453125,0.888671875
59,1596831676960713,-0.1829833984375,-0.03717041015625,-0.94232177734375,-0.27789306640625,-14.5625,0.875,4.3125,0.30615234375,0.158203125,0.91455078125
60,1596831676976715,-0.1824951171875,-0.0362548828125,-0.94256591796875,-0.277587890625,-3.9375,2.375,2.375,0.33203125,0.1435546875,0.912109375
61,1596831676999715,-0.18243408203125,-0.03753662109375,-0.9425048828125,-0.2777099609375,2.375,2.9375,-0.875,0.33935546875,0.24267578125,0.9482421875
62,1596831677020714,-0.18170166015625,-0.03765869140625,-0.94256591796875,-0.27783203125,-2.75,3.1875,0.1875,0.30322265625,0.20068359375,0.92529296875
63,1596831677036715,-0.181396484375,-0.03692626953125,-0.94268798828125,-0.27777099609375,-4.4375,1.875,0.8125,0.32421875,0.15869140625,0.888671875
64,1596831677074716,-0.181640625,-0.03741455078125,-0.9425048828125,-0.2781982421875,-0.875,-0.5,-2.0625,0.3193359375,0.2197265625,0.90087890625
65,1596831677080716,-0.18109130859375,-0.03741455078125,-0.94244384765625,-0.27880859375,-4.6875,2.6875,-2.5,0.32275390625,0.2216796875,0.9501953125
66,1596831677096715,-0.18017578125,-0.0374755859375,-0.942626953125,-0.27880859375,-0.75,4.6875,0.125,0.3125,0.166015625,0.9345703125
67,1596831677119715,-0.17974853515625,-0.0382080078125,-0.942626953125,-0.27874755859375,3.5625,3.8125,-0.875,0.3232421875,0.1669921875,0.9287109375
68,1596831677143716,-0.17987060546875,-0.038330078125,-0.94244384765625,-0.27947998046875,-3.375,-0.5625,-3.3125,0.322265625,0.2216796875,0.92822265625
69,1596831677156717,-0.179443359375,-0.03741455078125,-0.9422607421875,-0.28033447265625,-9.0,0.625,-3.125,0.31494140625,0.20751953125,0.93310546875
70,1596831677186716,-0.17816162109375,-0.03619384765625,-0.94244384765625,-0.28070068359375,-6.875,4.875,-1.25,0.3251953125,0.1416015625,0.96240234375
71,1596831677201716,-0.17742919921875,-0.0369873046875,-0.942626953125,-0.28045654296875,6.4375,5.6875,-0.75,0.31591796875,0.1201171875,0.93212890625
72,1596831677216716,-0.17742919921875,-0.04010009765625,-0.9425048828125,-0.28057861328125,16.1875,4.3125,-3.625,0.30810546875,0.18505859375,0.951171875
73,1596831677239714,-0.177734375,-0.0426025390625,-0.94219970703125,-0.2808837890625,10.875,1.8125,-3.625,0.3076171875,0.2236328125,0.92822265625
74,1596831677261715,-0.177490234375,-0.04315185546875,-0.942138671875,-0.28125,2.75,2.9375,-3.0,0.3193359375,0.17138671875,0.93017578125
75,1596831677276715,-0.17706298828125,-0.04425048828125,-0.94207763671875,-0.281494140625,4.8125,3.75,-2.75,0.3046875,0.18115234375,0.92822265625
76,1596831677299714,-0.1763916015625,-0.04486083984375,-0.94207763671875,-0.28192138671875,1.25,3.75,-2.6875,0.2919921875,0.19189453125,0.91748046875
77,1596831677321715,-0.17547607421875,-0.044921875,-0.942138671875,-0.2823486328125,-0.9375,4.5,-2.8125,0.3037109375,0.17626953125,0.9541015625
78,1596831677335713,-0.17449951171875,-0.04461669921875,-0.94219970703125,-0.28277587890625,-1.0625,4.125,-2.875,0.30078125,0.14599609375,0.95263671875
79,1596831677359715,-0.1739501953125,-0.04498291015625,-0.942138671875,-0.2830810546875,2.0625,3.0625,-2.75,0.29296875,0.15966796875,0.92431640625
80,1596831677381716,-0.173828125,-0.04522705078125,-0.9420166015625,-0.28363037109375,1.375,1.4375,-4.0625,0.30810546875,0.171875,0.9267578125
81,1596831677395713,-0.17352294921875,-0.04547119140625,-0.94189453125,-0.28411865234375,0.4375,2.3125,-3.125,0.30615234375,0.1806640625,0.931640625
82,1596831677419714,-0.17291259765625,-0.0452880859375,-0.94195556640625,-0.284423828125,-1.0,2.75,-2.1875,0.30224609375,0.162109375,0.94775390625
83,1596831677441716,-0.17254638671875,-0.045166015625,-0.94195556640625,-0.28460693359375,0.75,1.8125,-1.625,0.30029296875,0.150390625,0.939453125
84,1596831677455713,-0.17242431640625,-0.04571533203125,-0.94183349609375,-0.2850341796875,1.875,1.25,-2.6875,0.2900390625,0.189453125,0.91748046875
85,1596831677479715,-0.17193603515625,-0.04541015625,-0.9417724609375,-0.28558349609375,-3.5625,1.375,-2.6875,0.2861328125,0.18896484375,0.91650390625
86,1596831677501715,-0.17120361328125,-0.04510498046875,-0.94183349609375,-0.28582763671875,-1.6875,3.5625,-1.75,0.30224609375,0.1611328125,0.95263671875
87,1596831677515713,-0.1705322265625,-0.04571533203125,-0.9420166015625,-0.28564453125,4.25,4.625,-0.0625,0.28759765625,0.1474609375,0.92041015625
88,1596831677539715,-0.16998291015625,-0.0465087890625,-0.94207763671875,-0.2855224609375,4.5,3.4375,-0.4375,0.28173828125,0.1728515625,0.9384765625
89,1596831677561716,-0.16973876953125,-0.04644775390625,-0.9420166015625,-0.28582763671875,-1.5625,0.8125,-1.75,0.28564453125,0.1875,0.93603515625
90,1596831677575716,-0.16949462890625,-0.0462646484375,-0.9420166015625,-0.28607177734375,0.25,0.4375,-1.5625,0.2822265625,0.15478515625,0.92431640625
91,1596831677599714,-0.16961669921875,-0.0465087890625,-0.9420166015625,-0.28594970703125,2.3125,1.0,0.125,0.30322265625,0.17041015625,0.92041015625
92,1596831677621716,-0.169677734375,-0.04705810546875,-0.9420166015625,-0.285888671875,2.25,0.6875,-0.25,0.287109375,0.1884765625,0.9033203125
93,1596831677635713,-0.169677734375,-0.04705810546875,-0.9420166015625,-0.285888671875,-0.1875,0.1875,-0.375,0.283203125,0.181640625,0.92041015625
94,1596831677659717,-0.1697998046875,-0.04718017578125,-0.9420166015625,-0.2857666015625,1.4375,-1.0625,0.5625,0.27783203125,0.17578125,0.92236328125
95,1596831677681717,-0.169921875,-0.047607421875,-0.94195556640625,-0.28570556640625,2.125,-1.125,0.25,0.27392578125,0.19091796875,0.935546875
96,1596831677702713,-0.17010498046875,-0.0478515625,-0.94189453125,-0.2857666015625,0.625,-1.375,-0.25,0.2783203125,0.197265625,0.92431640625
97,1596831677719714,-0.17022705078125,-0.0482177734375,-0.94183349609375,-0.28582763671875,1.125,-1.0,-0.375,0.28125,0.20361328125,0.939453125
98,1596831677741717,-0.17022705078125,-0.04815673828125,-0.94189453125,-0.28582763671875,-1.0,-0.75,0.375,0.28857421875,0.171875,0.9365234375
99,1596831677762713,-0.1705322265625,-0.04901123046875,-0.9417724609375,-0.28570556640625,5.4375,-0.625,-0.4375,0.29052734375,0.18505859375,0.9423828125
100,1596831677779716,-0.17095947265625,-0.049560546875,-0.941650390625,-0.285888671875,2.875,-1.625,-1.1875,0.2919921875,0.20361328125,0.9384765625
