index,timestamp,orientation_x,orientation_y,orientation_z,orientation_w,gyroscope_x,gyroscope_y,gyroscope_z,acceleration_x,acceleration_y,acceleration_z
0,1596831670541572,-0.071044921875,0.13238525390625,-0.955322265625,-0.25457763671875,-6.25,-16.5,-23.6875,0.15283203125,-0.20068359375,1.126953125
1,1596831670565573,-0.07171630859375,0.13299560546875,-0.9539794921875,-0.25921630859375,-7.1875,4.8125,-25.6875,0.40283203125,-0.29541015625,1.42724609375
2,1596831670585571,-0.06610107421875,0.13665771484375,-0.9534912109375,-0.26043701171875,-12.5625,21.875,-6.0,0.15380859375,-0.490234375,1.0244140625
3,1596831670609571,-0.06317138671875,0.1376953125,-0.9542236328125,-0.258056640625,-8.75,3.25,14.375,0.0537109375,-0.236328125,0.9921875
4,1596831670623575,-0.06268310546875,0.14068603515625,-0.9532470703125,-0.26007080078125,-22.1875,-3.4375,-10.875,0.16455078125,-0.19775390625,1.01611328125
5,1596831670638571,-0.06201171875,0.14691162109375,-0.95147705078125,-0.2633056640625,-26.0,-8.5,-21.3125,0.12890625,-0.431640625,0.97509765625
6,1596831670661572,-0.0648193359375,0.14453125,-0.95086669921875,-0.2662353515625,26.625,-9.0625,-22.4375,0.2197265625,-0.423828125,1.03173828125
7,1596831670684572,-0.0692138671875,0.13543701171875,-0.95135498046875,-0.26812744140625,58.625,-5.8125,-16.375,0.23876953125,-0.25830078125,0.9345703125
8,1596831670705570,-0.07232666015625,0.12835693359375,-0.95208740234375,-0.26812744140625,41.5,-2.9375,-3.0625,0.23583984375,-0.15869140625,0.89208984375
9,1596831670721573,-0.0748291015625,0.12396240234375,-0.95263671875,-0.2674560546875,27.625,-5.0,1.375,0.22802734375,-0.17236328125,0.90283203125
10,1596831670744571,-0.07647705078125,0.12060546875,-0.95294189453125,-0.267578125,22.4375,-3.125,-3.0,0.212890625,-0.203125,0.916015625
11,1596831670765570,-0.07794189453125,0.1168212890625,-0.95318603515625,-0.26800537109375,24.875,-0.3125,-4.9375,0.224609375,-0.20458984375,0.93994140625
12,1596831670781572,-0.0792236328125,0.1119384765625,-0.9534912109375,-0.26849365234375,28.5625,2.375,-4.625,0.23681640625,-0.17236328125,0.9658203125
13,1596831670804571,-0.08013916015625,0.10675048828125,-0.9539794921875,-0.26873779296875,28.75,2.5,-3.75,0.19580078125,-0.14208984375,0.96142578125
14,1596831670825571,-0.08099365234375,0.103271484375,-0.95416259765625,-0.26910400390625,18.5,2.3125,-3.25,0.224609375,-0.125,0.943359375
15,1596831670841572,-0.08123779296875,0.100830078125,-0.95428466796875,-0.26953125,10.875,4.4375,-2.3125,0.23486328125,-0.11279296875,0.96923828125
16,1596831670864571,-0.0810546875,0.09893798828125,-0.95440673828125,-0.26983642578125,7.3125,4.3125,-1.9375,0.2138671875,-0.1103515625,0.98876953125
17,1596831670885571,-0.0806884765625,0.09771728515625,-0.95440673828125,-0.27044677734375,3.6875,4.125,-3.0625,0.212890625,-0.11279296875,0.98974609375
18,1596831670901572,-0.08026123046875,0.0965576171875,-0.95440673828125,-0.2708740234375,1.9375,4.1875,-2.0625,0.20556640625,-0.095703125,1.00537109375
19,1596831670924573,-0.08026123046875,0.095458984375,-0.95452880859375,-0.27081298828125,5.25,0.625,0.0,0.19677734375,-0.13232421875,0.984375
20,1596831670939572,-0.080322265625,0.09503173828125,-0.95458984375,-0.27081298828125,2.125,0.6875,0.0,0.208984375,-0.13427734375,0.97119140625
21,1596831670961571,-0.08062744140625,0.094482421875,-0.9547119140625,-0.27056884765625,4.1875,0.5625,1.0,0.22412109375,-0.14501953125,0.96728515625
22,1596831670984572,-0.08062744140625,0.09356689453125,-0.954833984375,-0.27032470703125,6.3125,1.375,0.875,0.20751953125,-0.1513671875,0.98095703125
23,1596831670998572,-0.08050537109375,0.09259033203125,-0.95501708984375,-0.27020263671875,5.8125,1.375,0.3125,0.19921875,-0.146484375,0.98974609375
24,1596831671021575,-0.08038330078125,0.0916748046875,-0.95513916015625,-0.27008056640625,5.6875,1.75,0.125,0.20166015625,-0.146484375,0.9912109375
25,1596831671044571,-0.08038330078125,0.09027099609375,-0.955322265625,-0.2698974609375,7.5625,1.375,0.5625,0.193359375,-0.12744140625,0.99365234375
26,1596831671065570,-0.0804443359375,0.08941650390625,-0.9554443359375,-0.2696533203125,4.875,0.3125,1.1875,0.19677734375,-0.1279296875,0.97900390625
27,1596831671081572,-0.0806884765625,0.0887451171875,-0.95562744140625,-0.269287109375,4.375,-0.625,1.5,0.20068359375,-0.1328125,0.99951171875
28,1596831671104571,-0.08123779296875,0.087646484375,-0.95574951171875,-0.2689208984375,7.75,-2.375,1.375,0.203125,-0.14111328125,1.01416015625
29,1596831671126571,-0.082275390625,0.0860595703125,-0.95599365234375,-0.26837158203125,10.375,-4.25,1.9375,0.201171875,-0.1259765625,1.041015625
30,1596831671142574,-0.083740234375,0.08489990234375,-0.95623779296875,-0.267333984375,5.25,-10.375,5.25,0.169921875,-0.0712890625,1.0556640625
31,1596831671164571,-0.085205078125,0.0860595703125,-0.95635986328125,-0.2659912109375,-10.375,-12.1875,8.4375,0.197265625,-0.02685546875,1.02978515625
32,1596831671186572,-0.08544921875,0.09197998046875,-0.95611572265625,-0.26483154296875,-37.8125,-12.375,9.9375,0.208984375,-0.05078125,1.05517578125
33,1596831671201573,-0.08502197265625,0.10162353515625,-0.9556884765625,-0.26287841796875,-56.625,-14.125,15.75,0.2314453125,-0.1064453125,1.0576171875
34,1596831671224572,-0.08367919921875,0.1116943359375,-0.9554443359375,-0.26031494140625,-50.9375,-10.75,17.9375,0.2138671875,-0.25830078125,1.0244140625
35,1596831671245572,-0.082275390625,0.1187744140625,-0.95538330078125,-0.2576904296875,-24.875,-6.0,14.875,0.1875,-0.4013671875,0.9375
36,1596831671261571,-0.0830078125,0.11639404296875,-0.95574951171875,-0.2572021484375,26.9375,-4.5,-1.6875,0.17724609375,-0.3720703125,1.00634765625
37,1596831671284571,-0.08587646484375,0.1080322265625,-0.95635986328125,-0.2578125,52.75,-6.3125,-9.75,0.18310546875,-0.21533203125,1.05322265625
38,1596831671305570,-0.08929443359375,0.10272216796875,-0.95654296875,-0.2579345703125,35.3125,-11.5,-5.375,0.212890625,-0.1650390625,0.95703125
39,1596831671320570,-0.09228515625,0.09820556640625,-0.95709228515625,-0.2567138671875,36.875,-9.5625,1.5625,0.24951171875,-0.25048828125,1.02783203125
40,1596831671344573,-0.09552001953125,0.090576171875,-0.95751953125,-0.2567138671875,50.375,-8.5625,-6.125,0.2392578125,-0.201171875,1.14111328125
41,1596831671365571,-0.0999755859375,0.08013916015625,-0.9581298828125,-0.25616455078125,68.5625,-11.6875,-5.6875,0.22607421875,-0.17919921875,1.10888671875
42,1596831671380572,-0.10626220703125,0.06732177734375,-0.9588623046875,-0.2547607421875,78.75,-14.75,-0.5625,0.28076171875,-0.052734375,1.0712890625
43,1596831671404571,-0.1107177734375,0.06134033203125,-0.95892333984375,-0.25408935546875,37.25,-19.5625,-1.25,0.212890625,-0.0341796875,1.05078125
44,1596831671425572,-0.1148681640625,0.0577392578125,-0.9583740234375,-0.25494384765625,31.0,-17.5,-10.9375,0.263671875,-0.14306640625,1.0166015625
45,1596831671447570,-0.11993408203125,0.0498046875,-0.95806884765625,-0.255615234375,56.125,-13.25,-12.4375,0.3154296875,-0.1171875,1.0361328125
46,1596831671464572,-0.125244140625,0.0404052734375,-0.95770263671875,-0.25616455078125,60.1875,-17.3125,-11.8125,0.25244140625,-0.03564453125,1.02001953125
47,1596831671485570,-0.1314697265625,0.03363037109375,-0.95672607421875,-0.25750732421875,50.625,-22.9375,-16.6875,0.27685546875,-0.080078125,0.908203125
48,1596831671501571,-0.1385498046875,0.0244140625,-0.95556640625,-0.25927734375,60.375,-20.75,-20.125,0.3203125,0.009765625,0.853515625
49,1596831671524575,-0.14508056640625,0.0152587890625,-0.95404052734375,-0.261962890625,48.875,-19.1875,-22.8125,0.32373046875,0.1689453125,0.90673828125
50,1596831671547573,-0.15020751953125,0.010009765625,-0.95263671875,-0.26434326171875,30.875,-18.5625,-18.875,0.3125,0.1083984375,0.890625
51,1596831671560571,-0.1556396484375,0.00579833984375,-0.95147705078125,-0.2655029296875,34.4375,-19.5,-13.625,0.314453125,-0.00390625,0.7890625
52,1596831671584572,-0.16143798828125,-0.0018310546875,-0.95025634765625,-0.26641845703125,48.375,-14.6875,-14.3125,0.34765625,0.08984375,0.76953125
53,1596831671606573,-0.1656494140625,-0.0098876953125,-0.9490966796875,-0.26788330078125,39.1875,-9.5,-14.125,0.3125,0.2431640625,0.8515625
54,1596831671620572,-0.16839599609375,-0.013671875,-0.94830322265625,-0.26873779296875,21.375,-8.5625,-8.5625,0.29736328125,0.140625,0.8427734375
55,1596831671644573,-0.17095947265625,-0.0172119140625,-0.9478759765625,-0.26861572265625,23.375,-5.375,-3.6875,0.32568359375,0.107421875,0.80810546875
56,1596831671666573,-0.173095703125,-0.02178955078125,-0.9473876953125,-0.26849365234375,24.0625,-2.4375,-3.5625,0.3251953125,0.18212890625,0.845703125
57,1596831671687570,-0.1739501953125,-0.02508544921875,-0.9471435546875,-0.26849365234375,15.625,1.1875,-2.3125,0.31884765625,0.18798828125,0.90625
58,1596831671704571,-0.17437744140625,-0.02752685546875,-0.9471435546875,-0.2679443359375,12.5625,2.8125,1.0625,0.31640625,0.16943359375,0.8876953125
59,1596831671726571,-0.17486572265625,-0.0294189453125,-0.94720458984375,-0.26727294921875,11.1875,1.5625,1.625,0.31591796875,0.146484375,0.8837890625
60,1596831671747572,-0.17559814453125,-0.03125,-0.9471435546875,-0.26690673828125,8.6875,0.0625,0.875,0.318359375,0.181640625,0.88037109375
61,1596831671764572,-0.17608642578125,-0.03155517578125,-0.947021484375,-0.2669677734375,-0.5625,-1.6875,0.0625,0.31103515625,0.1923828125,0.89697265625
62,1596831671792572,-0.17633056640625,-0.0316162109375,-0.94696044921875,-0.26702880859375,-0.8125,-1.5,0.25,0.30859375,0.17138671875,0.91455078125
63,1596831671801572,-0.177001953125,-0.03216552734375,-0.94683837890625,-0.26678466796875,5.0625,-1.375,0.0625,0.322265625,0.13525390625,0.8896484375
64,1596831671824574,-0.177978515625,-0.03387451171875,-0.94677734375,-0.26629638671875,9.75,-2.5625,1.5,0.3056640625,0.1748046875,0.88671875
65,1596831671846572,-0.17901611328125,-0.03515625,-0.946533203125,-0.266357421875,5.0625,-2.6875,-0.875,0.32080078125,0.201171875,0.88330078125
66,1596831671861571,-0.17938232421875,-0.03521728515625,-0.9464111328125,-0.266357421875,-2.6875,-1.875,0.75,0.3154296875,0.20947265625,0.90576171875
67,1596831671884571,-0.1793212890625,-0.0343017578125,-0.94647216796875,-0.26629638671875,-4.0625,-0.625,1.0,0.326171875,0.1474609375,0.93212890625
68,1596831671906571,-0.17974853515625,-0.03460693359375,-0.94647216796875,-0.2659912109375,2.1875,-1.125,1.5625,0.32421875,0.16015625,0.90673828125
69,1596831671921571,-0.179931640625,-0.0343017578125,-0.9464111328125,-0.26617431640625,-3.75,-1.25,-0.125,0.3125,0.18896484375,0.900390625
70,1596831671944588,-0.1798095703125,-0.0325927734375,-0.9462890625,-0.266845703125,-12.25,-2.3125,-1.4375,0.3125,0.18408203125,0.90771484375
71,1596831671966603,-0.179443359375,-0.03009033203125,-0.94610595703125,-0.26800537109375,-17.25,-2.3125,-3.125,0.318359375,0.18359375,0.92041015625
72,1596831671980601,-0.17919921875,-0.02764892578125,-0.946044921875,-0.26873779296875,-13.0625,-3.125,-2.375,0.32568359375,0.13037109375,0.95556640625
73,1596831672004601,-0.17962646484375,-0.02703857421875,-0.94586181640625,-0.26904296875,-0.6875,-3.6875,-1.9375,0.3212890625,0.11376953125,0.94091796875
74,1596831672026603,-0.1806640625,-0.02740478515625,-0.94549560546875,-0.2696533203125,1.125,-4.6875,-3.5625,0.333984375,0.171875,0.9140625
75,1596831672047603,-0.18133544921875,-0.0263671875,-0.945068359375,-0.27081298828125,-8.0625,-6.1875,-5.0,0.3251953125,0.18115234375,0.9248046875
76,1596831672063601,-0.18157958984375,-0.02484130859375,-0.94476318359375,-0.2718505859375,-8.5625,-4.375,-4.4375,0.3212890625,0.140625,0.9287109375
77,1596831672086600,-0.1820068359375,-0.02423095703125,-0.94464111328125,-0.27215576171875,-1.25,-3.5625,-2.0,0.3271484375,0.11669921875,0.93115234375
78,1596831672107604,-0.18255615234375,-0.02496337890625,-0.94451904296875,-0.27215576171875,7.1875,-1.375,-1.8125,0.3427734375,0.111328125,0.935546875
79,1596831672124602,-0.18316650390625,-0.0262451171875,-0.9443359375,-0.27227783203125,6.0,-1.3125,-1.625,0.33251953125,0.17236328125,0.92822265625
80,1596831672146605,-0.18316650390625,-0.026123046875,-0.94415283203125,-0.27276611328125,-1.6875,-0.0625,-2.625,0.34228515625,0.158203125,0.94091796875
81,1596831672167600,-0.1827392578125,-0.02587890625,-0.9442138671875,-0.27288818359375,-0.875,1.75,-0.875,0.33251953125,0.134765625,0.9541015625
82,1596831672184601,-0.182373046875,-0.02545166015625,-0.9443359375,-0.272705078125,-1.3125,1.625,1.0,0.33203125,0.12451171875,0.92919921875
83,1596831672206601,-0.18194580078125,-0.0255126953125,-0.94439697265625,-0.27276611328125,1.3125,2.0,-1.0,0.3330078125,0.12548828125,0.9609375
84,1596831672227600,-0.1815185546875,-0.0255126953125,-0.94439697265625,-0.2730712890625,-2.25,1.0,-1.0,0.31640625,0.1640625,0.94140625
85,1596831672244603,-0.18109130859375,-0.02447509765625,-0.94451904296875,-0.273193359375,-3.5,1.1875,-0.5625,0.33935546875,0.1025390625,0.955078125
86,1596831672266600,-0.18109130859375,-0.024658203125,-0.94451904296875,-0.2730712890625,2.1875,0.25,-0.0625,0.3251953125,0.12890625,0.92529296875
87,1596831672287600,-0.18109130859375,-0.024658203125,-0.94451904296875,-0.2730712890625,0.0625,0.6875,-0.6875,0.33203125,0.14990234375,0.93408203125
88,1596831672304601,-0.1807861328125,-0.02447509765625,-0.94451904296875,-0.2733154296875,-1.4375,0.5,-0.9375,0.31787109375,0.142578125,0.9384765625
89,1596831672326603,-0.18048095703125,-0.02423095703125,-0.944580078125,-0.27337646484375,-1.25,0.75,-0.3125,0.322265625,0.13232421875,0.94384765625
90,1596831672347600,-0.1800537109375,-0.024169921875,-0.94464111328125,-0.27337646484375,0.0,1.6875,-0.25,0.31787109375,0.126953125,0.93798828125
91,1596831672364601,-0.1800537109375,-0.024169921875,-0.94464111328125,-0.27337646484375,0.9375,0.1875,0.1875,0.3212890625,0.140625,0.919921875
92,1596831672386602,-0.17987060546875,-0.02362060546875,-0.94464111328125,-0.2735595703125,-2.75,0.25,-0.8125,0.3232421875,0.1318359375,0.91943359375
93,1596831672407605,-0.1798095703125,-0.02362060546875,-0.94464111328125,-0.2735595703125,-0.125,0.8125,0.0,0.31982421875,0.12744140625,0.92724609375
94,1596831672423602,-0.17962646484375,-0.02362060546875,-0.94476318359375,-0.27337646484375,1.25,1.375,0.625,0.3271484375,0.12109375,0.9228515625
95,1596831672446605,-0.17962646484375,-0.02410888671875,-0.94476318359375,-0.273193359375,2.5,0.5625,0.5,0.3154296875,0.14599609375,0.923828125
96,1596831672469616,-0.179443359375,-0.02410888671875,-0.94482421875,-0.273193359375,-1.25,0.9375,0.375,0.31884765625,0.15185546875,0.91552734375
97,1596831672484617,-0.17913818359375,-0.02392578125,-0.94488525390625,-0.273193359375,-1.75,1.125,0.4375,0.31640625,0.14794921875,0.9248046875
98,1596831672506618,-0.17889404296875,-0.02410888671875,-0.94500732421875,-0.27301025390625,2.5625,1.5,0.4375,0.322265625,0.1171875,0.93798828125
99,1596831672529617,-0.178955078125,-0.0247802734375,-0.94500732421875,-0.27276611328125,4.0,0.875,0.5,0.31982421875,0.1416015625,0.923828125
