index,timestamp,orientation_x,orientation_y,orientation_z,orientation_w,gyroscope_x,gyroscope_y,gyroscope_z,acceleration_x,acceleration_y,acceleration_z
0,1596961625011232,-0.0240478515625,-0.46600341796875,-0.86517333984375,0.18377685546875,0.6875,-0.0625,-0.6875,0.19677734375,0.77001953125,0.5537109375
1,1596961625017154,-0.02386474609375,-0.46612548828125,-0.8651123046875,0.18365478515625,1.1875,0.125,-0.9375,0.20263671875,0.771484375,0.55029296875
2,1596961625035156,-0.023681640625,-0.4661865234375,-0.86517333984375,0.18353271484375,0.75,0.25,-1.375,0.20458984375,0.76123046875,0.54931640625
3,1596961625054158,-0.023681640625,-0.46624755859375,-0.86517333984375,0.18316650390625,1.25,-1.125,-2.125,0.203125,0.75732421875,0.55078125
4,1596961625077155,-0.0234375,-0.46673583984375,-0.86505126953125,0.1827392578125,2.6875,-0.5625,-2.125,0.19970703125,0.7861328125,0.55224609375
5,1596961625095162,-0.02313232421875,-0.4666748046875,-0.86517333984375,0.182373046875,-0.125,0.125,-2.3125,0.193359375,0.771484375,0.546875
6,1596961625117155,-0.0228271484375,-0.466552734375,-0.86529541015625,0.18194580078125,0.0625,-0.1875,-2.625,0.19287109375,0.76904296875,0.556640625
7,1596961625137164,-0.02239990234375,-0.467041015625,-0.86517333984375,0.181396484375,2.8125,-0.125,-3.3125,0.1943359375,0.78515625,0.54833984375
8,1596961625155156,-0.0220947265625,-0.46710205078125,-0.865234375,0.180908203125,0.3125,-0.1875,-3.125,0.20166015625,0.78662109375,0.55322265625
9,1596961625174157,-0.0218505859375,-0.466796875,-0.865478515625,0.1805419921875,-1.75,0.6875,-3.3125,0.20458984375,0.7666015625,0.54443359375
10,1596961625197155,-0.02166748046875,-0.466552734375,-0.86572265625,0.1802978515625,-1.125,0.375,-1.875,0.1923828125,0.755859375,0.54541015625
11,1596961625215160,-0.0216064453125,-0.46624755859375,-0.86590576171875,0.18017578125,-1.3125,0.125,-0.5625,0.1904296875,0.76416015625,0.55029296875
12,1596961625234157,-0.0216064453125,-0.4659423828125,-0.86602783203125,0.1802978515625,-1.875,0.125,0.875,0.1884765625,0.76123046875,0.5400390625
13,1596961625257155,-0.02178955078125,-0.46514892578125,-0.866455078125,0.1802978515625,-4.6875,-0.5625,0.5625,0.18603515625,0.77294921875,0.5537109375
14,1596961625288157,-0.02197265625,-0.46502685546875,-0.86651611328125,0.18017578125,-0.5625,-1.8125,0.5625,0.18603515625,0.75732421875,0.55078125
15,1596961625294157,-0.02203369140625,-0.46533203125,-0.86639404296875,0.17999267578125,2.375,-1.25,-1.0,0.201171875,0.77587890625,0.560546875
16,1596961625317155,-0.02191162109375,-0.46502685546875,-0.8665771484375,0.1798095703125,-1.125,0.5,-1.625,0.2060546875,0.77685546875,0.5625
17,1596961625335158,-0.0216064453125,-0.46490478515625,-0.86669921875,0.1796875,0.8125,1.375,-1.8125,0.2001953125,0.75634765625,0.5634765625
18,1596961625356157,-0.02154541015625,-0.46600341796875,-0.8660888671875,0.17987060546875,6.9375,-0.3125,1.0,0.19775390625,0.7607421875,0.5341796875
19,1596961625377157,-0.02130126953125,-0.467041015625,-0.86553955078125,0.17974853515625,5.625,-0.1875,-1.1875,0.201171875,0.783203125,0.53369140625
20,1596961625395158,-0.02069091796875,-0.466796875,-0.86572265625,0.17950439453125,0.375,2.125,-2.5,0.1904296875,0.78759765625,0.576171875
21,1596961625417157,-0.019775390625,-0.46630859375,-0.8658447265625,0.18035888671875,0.625,7.875,0.0,0.22314453125,0.76611328125,0.58447265625
22,1596961625437157,-0.01800537109375,-0.46636962890625,-0.8658447265625,0.180419921875,2.875,8.5,-4.125,0.18212890625,0.74462890625,0.53564453125
23,1596961625459162,-0.01629638671875,-0.46771240234375,-0.86529541015625,0.1798095703125,9.9375,5.0,-6.5,0.173828125,0.7607421875,0.5380859375
24,1596961625476156,-0.01507568359375,-0.4697265625,-0.8642578125,0.1795654296875,8.8125,3.25,-2.375,0.1767578125,0.8310546875,0.4833984375
25,1596961625497160,-0.01434326171875,-0.468505859375,-0.86492919921875,0.1796875,-7.8125,5.3125,-1.75,0.197265625,0.83349609375,0.5693359375
26,1596961625519156,-0.0130615234375,-0.46514892578125,-0.86669921875,0.17987060546875,-18.625,10.3125,-4.5,0.18994140625,0.787109375,0.57958984375
27,1596961625536156,-0.01171875,-0.4625244140625,-0.86822509765625,0.17926025390625,-12.5,6.0,-6.875,0.14404296875,0.71142578125,0.568359375
28,1596961625557156,-0.01080322265625,-0.46319580078125,-0.867919921875,0.17926025390625,6.75,4.3125,-3.125,0.1962890625,0.76708984375,0.580078125
29,1596961625579159,-0.00958251953125,-0.46588134765625,-0.8665771484375,0.1788330078125,13.1875,4.625,-6.5,0.2294921875,0.837890625,0.501953125
30,1596961625596156,-0.00836181640625,-0.46185302734375,-0.86871337890625,0.17889404296875,-25.0625,9.875,-3.75,0.16259765625,0.830078125,0.58544921875
31,1596961625617159,-0.0072021484375,-0.457763671875,-0.870849609375,0.17919921875,-20.125,8.9375,-2.4375,0.14599609375,0.7421875,0.625
32,1596961625640154,-0.006103515625,-0.4573974609375,-0.871337890625,0.17767333984375,-3.75,0.375,-8.25,0.10693359375,0.7099609375,0.48974609375
33,1596961625656159,-0.00579833984375,-0.45867919921875,-0.870849609375,0.17681884765625,9.125,-0.375,-7.5,0.21484375,0.7744140625,0.5859375
34,1596961625677159,-0.00421142578125,-0.4569091796875,-0.87176513671875,0.177001953125,-9.8125,12.125,-6.8125,0.2314453125,0.8740234375,0.63525390625
35,1596961625699156,-0.00244140625,-0.451904296875,-0.87451171875,0.17626953125,-23.8125,10.25,-10.375,0.13330078125,0.67333984375,0.62548828125
36,1596961625717156,-0.00042724609375,-0.4522705078125,-0.8746337890625,0.17474365234375,5.3125,5.4375,-12.9375,0.13671875,0.68896484375,0.544921875
37,1596961625737160,0.00146484375,-0.455078125,-0.87359619140625,0.1727294921875,18.3125,0.125,-12.5,0.1259765625,0.78955078125,0.58056640625
38,1596961625761164,0.0029296875,-0.4560546875,-0.87310791015625,0.1724853515625,3.25,8.5625,-7.0,0.203125,0.8466796875,0.54052734375
39,1596961625777159,0.004638671875,-0.45318603515625,-0.87469482421875,0.171875,-13.9375,7.75,-7.25,0.09765625,0.701171875,0.57470703125
40,1596961625797160,0.00567626953125,-0.4530029296875,-0.8751220703125,0.1702880859375,0.0,-0.125,-10.125,0.11181640625,0.732421875,0.5595703125
41,1596961625819161,0.00732421875,-0.45416259765625,-0.87481689453125,0.16876220703125,9.1875,1.9375,-10.0625,0.11083984375,0.783203125,0.59423828125
42,1596961625837156,0.0084228515625,-0.45391845703125,-0.87506103515625,0.16815185546875,0.0625,5.0,-7.5,0.154296875,0.7802734375,0.5908203125
43,1596961625857155,0.0093994140625,-0.4520263671875,-0.8760986328125,0.1678466796875,-9.3125,3.875,-3.1875,0.087890625,0.72412109375,0.572265625
44,1596961625879158,0.0096435546875,-0.4520263671875,-0.87615966796875,0.16717529296875,2.375,-0.75,-4.0,0.12646484375,0.73291015625,0.5859375
45,1596961625897157,0.010009765625,-0.45318603515625,-0.8756103515625,0.16693115234375,8.3125,1.0,-3.25,0.1533203125,0.7587890625,0.5751953125
46,1596961625917168,0.01080322265625,-0.4527587890625,-0.87579345703125,0.16705322265625,-1.25,4.8125,-1.875,0.13623046875,0.81591796875,0.61474609375
47,1596961625939157,0.01171875,-0.451904296875,-0.87628173828125,0.16668701171875,-2.75,1.875,-1.875,0.068359375,0.7236328125,0.572265625
48,1596961625957156,0.0115966796875,-0.45355224609375,-0.8756103515625,0.16595458984375,10.6875,-4.8125,-1.8125,0.0986328125,0.7197265625,0.5439453125
49,1596961625977155,0.01116943359375,-0.455810546875,-0.87445068359375,0.16595458984375,13.4375,-2.0,-0.375,0.18115234375,0.78857421875,0.56640625
50,1596961625999165,0.01141357421875,-0.45465087890625,-0.87493896484375,0.16656494140625,-6.125,4.625,0.75,0.1533203125,0.8203125,0.61767578125
51,1596961626017160,0.0123291015625,-0.45233154296875,-0.8760986328125,0.1666259765625,-9.625,5.0625,-2.125,0.09521484375,0.7353515625,0.61865234375
52,1596961626040160,0.013671875,-0.45477294921875,-0.87506103515625,0.1654052734375,13.5625,-0.875,-4.875,0.060546875,0.77294921875,0.521484375
53,1596961626059160,0.01416015625,-0.4569091796875,-0.87408447265625,0.16461181640625,10.0,-0.1875,-5.25,0.1494140625,0.8486328125,0.5478515625
54,1596961626085157,0.01519775390625,-0.45587158203125,-0.8746337890625,0.16461181640625,-1.6875,7.625,-6.4375,0.1767578125,0.77783203125,0.63720703125
55,1596961626097156,0.01751708984375,-0.45458984375,-0.87518310546875,0.16473388671875,-1.6875,13.125,-6.875,0.12646484375,0.7841796875,0.6396484375
56,1596961626119156,0.01971435546875,-0.4566650390625,-0.87451171875,0.1624755859375,11.4375,1.375,-13.1875,0.05224609375,0.759765625,0.49853515625
57,1596961626137160,0.0216064453125,-0.4588623046875,-0.87359619140625,0.1607666015625,11.25,4.1875,-13.5625,0.1328125,0.82080078125,0.515625
58,1596961626157158,0.02423095703125,-0.4580078125,-0.87420654296875,0.1595458984375,-2.1875,8.8125,-11.375,0.06005859375,0.7880859375,0.5888671875
59,1596961626179156,0.02618408203125,-0.4564208984375,-0.87506103515625,0.15899658203125,-4.5625,8.8125,-8.125,0.07763671875,0.74169921875,0.60009765625
60,1596961626202160,0.02728271484375,-0.4564208984375,-0.87518310546875,0.15826416015625,3.5625,2.25,-5.1875,0.0576171875,0.70751953125,0.55859375
61,1596961626217159,0.0279541015625,-0.4583740234375,-0.87432861328125,0.15728759765625,11.25,-0.5,-6.125,0.10107421875,0.79052734375,0.5341796875
62,1596961626239182,0.0286865234375,-0.4588623046875,-0.8741455078125,0.1566162109375,2.5,1.375,-4.9375,0.087890625,0.791015625,0.54931640625
63,1596961626257156,0.02960205078125,-0.45831298828125,-0.87451171875,0.15618896484375,-0.9375,2.6875,-3.375,0.0546875,0.759765625,0.57080078125
64,1596961626277159,0.02972412109375,-0.45819091796875,-0.87457275390625,0.1561279296875,-0.625,-0.1875,-0.875,0.04833984375,0.74169921875,0.56787109375
65,1596961626299250,0.0296630859375,-0.45880126953125,-0.874267578125,0.156005859375,5.0625,-1.8125,0.5,0.07080078125,0.7685546875,0.572265625
66,1596961626317160,0.02935791015625,-0.4605712890625,-0.8734130859375,0.15576171875,9.0625,-4.3125,1.6875,0.07177734375,0.7998046875,0.5322265625
67,1596961626339156,0.02886962890625,-0.46087646484375,-0.87322998046875,0.1558837890625,1.8125,-2.0,1.375,0.107421875,0.81298828125,0.578125
68,1596961626359156,0.02862548828125,-0.460205078125,-0.87359619140625,0.15594482421875,-3.125,-1.1875,1.6875,0.0654296875,0.75439453125,0.55908203125
69,1596961626377157,0.02813720703125,-0.46044921875,-0.87347412109375,0.15594482421875,2.75,-3.375,1.8125,0.078125,0.755859375,0.564453125
70,1596961626398156,0.027587890625,-0.4610595703125,-0.87322998046875,0.1556396484375,4.4375,-5.0,1.625,0.06787109375,0.75634765625,0.54931640625
71,1596961626419160,0.026611328125,-0.46209716796875,-0.872802734375,0.15521240234375,6.0625,-8.1875,2.5625,0.0595703125,0.75146484375,0.54052734375
72,1596961626437156,0.02490234375,-0.46282958984375,-0.87249755859375,0.15478515625,4.5625,-12.3125,5.25,0.04541015625,0.734375,0.5400390625
73,1596961626460253,0.021728515625,-0.462646484375,-0.87255859375,0.1553955078125,-1.0,-15.125,12.375,0.07861328125,0.73486328125,0.56787109375
74,1596961626479182,0.0179443359375,-0.46160888671875,-0.87286376953125,0.15753173828125,-5.8125,-11.9375,19.0,0.1259765625,0.7373046875,0.58935546875
75,1596961626497157,0.0140380859375,-0.4615478515625,-0.87261962890625,0.1595458984375,-3.0625,-14.4375,20.625,0.1142578125,0.76025390625,0.54541015625
76,1596961626518159,0.01043701171875,-0.46295166015625,-0.87152099609375,0.161376953125,3.0625,-14.5625,20.8125,0.111328125,0.82421875,0.521484375
77,1596961626539156,0.00677490234375,-0.46392822265625,-0.87066650390625,0.16357421875,-0.375,-13.75,23.1875,0.11865234375,0.84326171875,0.5205078125
78,1596961626559160,0.00286865234375,-0.46319580078125,-0.87054443359375,0.16632080078125,-9.5,-12.4375,26.0625,0.12109375,0.84033203125,0.55419921875
79,1596961626578157,-0.00152587890625,-0.4619140625,-0.87066650390625,0.16925048828125,-11.5,-13.1875,26.3125,0.154296875,0.80126953125,0.56103515625
80,1596961626599160,-0.006103515625,-0.46075439453125,-0.87078857421875,0.17169189453125,-9.9375,-14.6875,23.625,0.1728515625,0.771484375,0.56640625
81,1596961626623158,-0.01055908203125,-0.46014404296875,-0.8707275390625,0.17333984375,-5.9375,-16.9375,19.125,0.1884765625,0.76953125,0.57763671875
82,1596961626640157,-0.01434326171875,-0.46063232421875,-0.87017822265625,0.174560546875,0.875,-16.1875,15.875,0.1865234375,0.77587890625,0.57421875
83,1596961626659157,-0.01708984375,-0.46099853515625,-0.86981201171875,0.17523193359375,0.3125,-12.6875,11.5,0.185546875,0.7978515625,0.583984375
84,1596961626682158,-0.01953125,-0.460205078125,-0.8699951171875,0.1761474609375,-5.1875,-9.75,10.9375,0.18896484375,0.78271484375,0.595703125
85,1596961626700158,-0.021728515625,-0.45928955078125,-0.8702392578125,0.177001953125,-5.25,-7.125,8.5,0.21337890625,0.7421875,0.57958984375
86,1596961626719155,-0.02301025390625,-0.45947265625,-0.87005615234375,0.1773681640625,2.5,-5.625,4.375,0.20751953125,0.73876953125,0.58349609375
87,1596961626737159,-0.02374267578125,-0.46075439453125,-0.869384765625,0.17724609375,8.1875,-5.0,1.25,0.2109375,0.77294921875,0.57080078125
88,1596961626760279,-0.02410888671875,-0.46197509765625,-0.8687744140625,0.17706298828125,5.8125,-3.4375,0.25,0.2060546875,0.79736328125,0.552734375
89,1596961626779182,-0.02435302734375,-0.46209716796875,-0.86871337890625,0.17681884765625,0.625,-1.9375,-0.375,0.2001953125,0.775390625,0.55810546875
90,1596961626797157,-0.0245361328125,-0.46197509765625,-0.86883544921875,0.17657470703125,-0.125,-1.5625,-1.0,0.197265625,0.7587890625,0.56982421875
91,1596961626820157,-0.024658203125,-0.4620361328125,-0.86883544921875,0.1763916015625,1.3125,-1.375,-0.9375,0.20361328125,0.75634765625,0.560546875
92,1596961626839155,-0.02484130859375,-0.4620361328125,-0.86883544921875,0.17620849609375,1.1875,-1.5625,-1.0625,0.20263671875,0.7626953125,0.57666015625
93,1596961626857158,-0.02490234375,-0.462158203125,-0.86883544921875,0.1761474609375,1.625,-0.4375,-0.5625,0.20703125,0.7578125,0.56689453125
94,1596961626880172,-0.02490234375,-0.46209716796875,-0.86883544921875,0.1761474609375,0.1875,0.375,-0.5625,0.20166015625,0.75390625,0.56640625
95,1596961626899155,-0.02471923828125,-0.46185302734375,-0.86895751953125,0.17633056640625,0.1875,1.25,0.25,0.19091796875,0.75390625,0.56689453125
96,1596961626917157,-0.0245361328125,-0.4620361328125,-0.8687744140625,0.17669677734375,2.0,1.75,1.4375,0.20458984375,0.77001953125,0.56494140625
97,1596961626940155,-0.0242919921875,-0.4620361328125,-0.86871337890625,0.17706298828125,0.1875,2.125,0.875,0.201171875,0.76708984375,0.5517578125
98,1596961626959155,-0.0240478515625,-0.4619140625,-0.86871337890625,0.17730712890625,0.5,1.875,0.8125,0.1953125,0.759765625,0.556640625
99,1596961626977159,-0.0238037109375,-0.462158203125,-0.8685302734375,0.17755126953125,2.625,1.1875,0.9375,0.19140625,0.7666015625,0.56689453125
100,1596961627000156,-0.0235595703125,-0.46240234375,-0.868408203125,0.1776123046875,1.5625,0.6875,0.0625,0.19287109375,0.7734375,0.55322265625
