index,timestamp,orientation_x,orientation_y,orientation_z,orientation_w,gyroscope_x,gyroscope_y,gyroscope_z,acceleration_x,acceleration_y,acceleration_z
0,1597652723758570,-0.4853515625,0.24774169921875,-0.58001708984375,0.60546875,-10.75,0.125,1.5,0.26220703125,-0.9521484375,0.4462890625
1,1597652723779571,-0.4859619140625,0.24859619140625,-0.57977294921875,0.60491943359375,-6.75,0.4375,-0.5625,0.26611328125,-0.94140625,0.4326171875
2,1597652723797575,-0.4859619140625,0.24859619140625,-0.57977294921875,0.60491943359375,-0.125,0.75,-0.1875,0.2724609375,-0.9052734375,0.43115234375
3,1597652723819078,-0.48590087890625,0.24859619140625,-0.57977294921875,0.60491943359375,-0.5625,-0.0625,0.375,0.2587890625,-0.8974609375,0.423828125
4,1597652723839898,-0.48590087890625,0.24853515625,-0.579833984375,0.60491943359375,-1.0,0.125,0.3125,0.27001953125,-0.8916015625,0.421875
5,1597652723858170,-0.48577880859375,0.24853515625,-0.57977294921875,0.6051025390625,0.5,0.0625,1.4375,0.27685546875,-0.890625,0.41552734375
6,1597652723879883,-0.4859619140625,0.24871826171875,-0.57940673828125,0.605224609375,-1.4375,-0.875,1.875,0.2763671875,-0.919921875,0.421875
7,1597652723899970,-0.4862060546875,0.2493896484375,-0.57916259765625,0.60491943359375,-3.5625,0.875,0.125,0.2578125,-0.93408203125,0.41650390625
8,1597652723916995,-0.4862060546875,0.2493896484375,-0.5792236328125,0.60491943359375,-0.375,0.6875,0.75,0.27734375,-0.90478515625,0.41650390625
9,1597652723939886,-0.48638916015625,0.24969482421875,-0.5789794921875,0.6048583984375,-2.1875,0.125,1.625,0.27197265625,-0.88330078125,0.40771484375
10,1597652723959882,-0.4869384765625,0.2503662109375,-0.57855224609375,0.60455322265625,-5.625,0.125,1.9375,0.27099609375,-0.8837890625,0.400390625
11,1597652723977900,-0.4876708984375,0.25152587890625,-0.57806396484375,0.60394287109375,-8.75,0.6875,1.5,0.263671875,-0.9375,0.4228515625
12,1597652724000175,-0.48785400390625,0.25244140625,-0.5777587890625,0.60369873046875,-4.125,1.375,0.25,0.2529296875,-0.9658203125,0.42431640625
13,1597652724021114,-0.487548828125,0.25238037109375,-0.57794189453125,0.60382080078125,1.3125,1.0,-0.0625,0.2666015625,-0.91845703125,0.4189453125
14,1597652724037115,-0.48773193359375,0.2525634765625,-0.57794189453125,0.60357666015625,-2.1875,0.3125,-0.25,0.26953125,-0.88916015625,0.40673828125
15,1597652724059845,-0.48870849609375,0.2532958984375,-0.57763671875,0.602783203125,-8.125,-0.0625,-0.4375,0.267578125,-0.89111328125,0.39501953125
16,1597652724080102,-0.48980712890625,0.25408935546875,-0.5772705078125,0.6019287109375,-8.6875,0.0,0.3125,0.28955078125,-0.9189453125,0.3896484375
17,1597652724099115,-0.49041748046875,0.25445556640625,-0.57720947265625,0.601318359375,-4.25,1.25,1.0,0.30859375,-0.912109375,0.39111328125
18,1597652724128280,-0.4906005859375,0.25506591796875,-0.57708740234375,0.60107421875,-3.5625,2.25,2.25,0.28125,-0.89013671875,0.3876953125
19,1597652724139963,-0.4908447265625,0.25579833984375,-0.57666015625,0.60089111328125,-6.4375,0.5625,3.6875,0.27392578125,-0.869140625,0.41455078125
20,1597652724157969,-0.4921875,0.2574462890625,-0.575439453125,0.60028076171875,-14.6875,-1.5625,4.625,0.26123046875,-0.90966796875,0.40673828125
21,1597652724179959,-0.49407958984375,0.2598876953125,-0.573486328125,0.59954833984375,-19.0,-3.125,6.4375,0.25146484375,-0.98876953125,0.41259765625
22,1597652724199954,-0.493896484375,0.26116943359375,-0.57183837890625,0.60076904296875,-3.375,-3.5625,9.0625,0.2265625,-1.0654296875,0.45947265625
23,1597652724217338,-0.49383544921875,0.2628173828125,-0.569580078125,0.6021728515625,-9.0625,-5.8125,12.3125,0.21826171875,-1.07958984375,0.52197265625
24,1597652724240026,-0.49176025390625,0.26092529296875,-0.56903076171875,0.605224609375,9.5625,-9.1875,9.875,0.23583984375,-0.84423828125,0.54248046875
25,1597652724259954,-0.4937744140625,0.260986328125,-0.5667724609375,0.605712890625,-17.1875,-19.0625,-1.4375,0.12255859375,-0.91796875,0.513671875
26,1597652724277020,-0.5025634765625,0.268798828125,-0.56158447265625,0.599853515625,-74.125,-6.9375,4.5625,0.1904296875,-0.9150390625,0.2548828125
27,1597652724299968,-0.505615234375,0.2734375,-0.55914306640625,0.59747314453125,-29.8125,4.6875,9.875,0.3212890625,-1.19677734375,0.35009765625
28,1597652724319971,-0.5040283203125,0.2760009765625,-0.5576171875,0.59906005859375,8.75,10.5625,23.875,0.3505859375,-1.1455078125,0.28173828125
29,1597652724338131,-0.49700927734375,0.278076171875,-0.5582275390625,0.60333251953125,34.0625,23.125,22.5,0.1572265625,-1.05322265625,0.35400390625
30,1597652724368962,-0.4918212890625,0.28106689453125,-0.55780029296875,0.60662841796875,19.625,18.375,22.25,0.1318359375,-1.0234375,0.36279296875
31,1597652724379961,-0.48974609375,0.28466796875,-0.55767822265625,0.606689453125,-4.5625,15.5,6.0,0.08447265625,-0.958984375,0.3818359375
32,1597652724397964,-0.48846435546875,0.2843017578125,-0.56024169921875,0.60552978515625,4.5625,9.9375,-15.375,0.1435546875,-0.904296875,0.38525390625
33,1597652724420614,-0.48846435546875,0.28045654296875,-0.56378173828125,0.60406494140625,15.6875,1.5,-22.6875,0.27001953125,-0.82568359375,0.3056640625
34,1597652724441617,-0.48974609375,0.27606201171875,-0.56781005859375,0.601318359375,10.0,2.125,-23.3125,0.38671875,-0.6826171875,0.255859375
35,1597652724457375,-0.49322509765625,0.2755126953125,-0.5699462890625,0.59674072265625,-21.9375,4.9375,-15.875,0.36669921875,-0.583984375,0.26953125
36,1597652724480375,-0.49761962890625,0.27923583984375,-0.5693359375,0.591796875,-46.5625,7.5625,0.1875,0.37841796875,-0.8115234375,0.38037109375
37,1597652724501739,-0.49951171875,0.28436279296875,-0.566162109375,0.5908203125,-35.3125,1.625,17.0,0.21240234375,-0.99560546875,0.43505859375
38,1597652724518028,-0.498291015625,0.28460693359375,-0.56524658203125,0.5926513671875,7.875,-1.75,8.3125,0.20947265625,-1.0537109375,0.3828125
39,1597652724540015,-0.495361328125,0.28179931640625,-0.56622314453125,0.59552001953125,31.0,-0.875,4.3125,0.26416015625,-0.9697265625,0.33740234375
40,1597652724561168,-0.49322509765625,0.2796630859375,-0.56793212890625,0.5966796875,21.3125,3.9375,-2.375,0.26318359375,-0.89599609375,0.33642578125
41,1597652724577653,-0.4930419921875,0.281005859375,-0.5684814453125,0.59564208984375,-6.5625,7.9375,-1.75,0.2080078125,-0.87744140625,0.3525390625
42,1597652724600169,-0.4942626953125,0.28387451171875,-0.56781005859375,0.5938720703125,-21.0,6.1875,2.125,0.2255859375,-0.93896484375,0.384765625
43,1597652724621500,-0.49481201171875,0.2862548828125,-0.56695556640625,0.59307861328125,-12.8125,5.0,6.25,0.244140625,-1.01806640625,0.380859375
44,1597652724637900,-0.493896484375,0.28680419921875,-0.56671142578125,0.59381103515625,5.6875,3.0625,5.0,0.22802734375,-1.03076171875,0.3505859375
45,1597652724662694,-0.49188232421875,0.2857666015625,-0.56756591796875,0.59521484375,15.8125,3.0625,1.5,0.21044921875,-0.91357421875,0.3486328125
46,1597652724681504,-0.490966796875,0.285400390625,-0.56817626953125,0.5955810546875,5.4375,2.875,0.0625,0.2099609375,-0.8505859375,0.34521484375
47,1597652724697508,-0.49114990234375,0.28643798828125,-0.56768798828125,0.5953369140625,-5.625,2.625,5.5625,0.2548828125,-0.91650390625,0.35888671875
48,1597652724720521,-0.49102783203125,0.2879638671875,-0.566650390625,0.595703125,-4.9375,2.4375,9.5,0.2353515625,-0.99560546875,0.37841796875
49,1597652724741502,-0.48974609375,0.28863525390625,-0.5660400390625,0.5970458984375,6.5,1.0,6.0,0.15869140625,-0.98095703125,0.35595703125
50,1597652724757505,-0.48809814453125,0.28826904296875,-0.56585693359375,0.59869384765625,11.875,-0.125,4.3125,0.15966796875,-0.9462890625,0.36083984375
51,1597652724779498,-0.48724365234375,0.28814697265625,-0.56591796875,0.59942626953125,6.75,1.8125,4.3125,0.22021484375,-0.90576171875,0.3349609375
52,1597652724801504,-0.4874267578125,0.28948974609375,-0.56549072265625,0.59906005859375,-7.4375,4.1875,5.875,0.24169921875,-0.923828125,0.3701171875
53,1597652724823100,-0.488037109375,0.2921142578125,-0.56414794921875,0.5985107421875,-14.25,4.0625,8.875,0.21337890625,-0.990234375,0.38232421875
54,1597652724839502,-0.48773193359375,0.2940673828125,-0.562744140625,0.59912109375,-5.1875,1.875,10.0,0.17626953125,-1.00537109375,0.37451171875
55,1597652724861745,-0.486572265625,0.29437255859375,-0.56207275390625,0.60052490234375,6.3125,0.625,9.625,0.20849609375,-0.98779296875,0.37255859375
56,1597652724882498,-0.48504638671875,0.29473876953125,-0.56182861328125,0.60186767578125,7.1875,3.375,8.875,0.1982421875,-0.9501953125,0.3701171875
57,1597652724900582,-0.4842529296875,0.29571533203125,-0.5615234375,0.602294921875,-0.5625,4.25,7.0,0.20068359375,-0.9306640625,0.37451171875
58,1597652724921754,-0.4840087890625,0.29766845703125,-0.56060791015625,0.60235595703125,-7.25,4.5,8.5,0.17919921875,-0.9716796875,0.38134765625
59,1597652724942816,-0.48345947265625,0.2991943359375,-0.55975341796875,0.60284423828125,-3.25,2.75,7.25,0.15869140625,-0.9970703125,0.3837890625
60,1597652724959753,-0.482421875,0.29949951171875,-0.5594482421875,0.60382080078125,6.25,1.8125,5.0,0.1650390625,-0.982421875,0.357421875
61,1597652724981971,-0.4810791015625,0.2989501953125,-0.5599365234375,0.60467529296875,10.25,2.5625,2.5625,0.1953125,-0.9462890625,0.35986328125
62,1597652725002751,-0.480224609375,0.29876708984375,-0.56036376953125,0.6051025390625,5.1875,3.125,2.3125,0.19775390625,-0.91015625,0.35888671875
63,1597652725018964,-0.48004150390625,0.299560546875,-0.5601806640625,0.60504150390625,-2.75,3.0,3.625,0.18359375,-0.92431640625,0.36865234375
64,1597652725041952,-0.479736328125,0.3006591796875,-0.55963134765625,0.605224609375,-3.5625,2.75,5.125,0.17041015625,-0.9619140625,0.384765625
65,1597652725063022,-0.47930908203125,0.3017578125,-0.5592041015625,0.60540771484375,-2.375,3.25,5.375,0.1708984375,-0.9609375,0.37841796875
66,1597652725078831,-0.47894287109375,0.302490234375,-0.55902099609375,0.60552978515625,-1.0,2.9375,3.5,0.1748046875,-0.96533203125,0.37158203125
67,1597652725101807,-0.47869873046875,0.302734375,-0.55902099609375,0.6055908203125,0.25,1.5625,1.375,0.177734375,-0.95361328125,0.37451171875
68,1597652725122804,-0.47869873046875,0.30328369140625,-0.5589599609375,0.6053466796875,-2.3125,1.625,-0.25,0.15576171875,-0.9541015625,0.3662109375
69,1597652725138799,-0.47845458984375,0.3033447265625,-0.559326171875,0.60516357421875,-0.75,2.3125,-0.9375,0.1767578125,-0.93505859375,0.384765625
70,1597652725161812,-0.4786376953125,0.30364990234375,-0.5594482421875,0.604736328125,-2.75,1.625,-0.9375,0.1796875,-0.943359375,0.3681640625
71,1597652725182822,-0.4788818359375,0.303955078125,-0.5595703125,0.604248046875,-2.6875,1.875,-0.4375,0.1884765625,-0.94921875,0.3642578125
72,1597652725198815,-0.478759765625,0.30413818359375,-0.55963134765625,0.604248046875,-0.0625,1.125,0.1875,0.17333984375,-0.9580078125,0.37255859375
73,1597652725222825,-0.478271484375,0.303955078125,-0.56005859375,0.60430908203125,3.0625,1.5,-1.4375,0.16015625,-0.943359375,0.36865234375
74,1597652725242832,-0.47784423828125,0.30389404296875,-0.560546875,0.604248046875,1.5625,3.0,-0.6875,0.185546875,-0.94677734375,0.37744140625
75,1597652725259808,-0.4779052734375,0.30450439453125,-0.5606689453125,0.603759765625,-3.125,3.625,0.875,0.193359375,-0.93896484375,0.36376953125
76,1597652725281817,-0.478515625,0.305419921875,-0.56036376953125,0.60308837890625,-6.8125,1.3125,0.4375,0.173828125,-0.95947265625,0.36083984375
77,1597652725302809,-0.478759765625,0.30596923828125,-0.5599365234375,0.60302734375,-2.1875,0.0,1.0625,0.1611328125,-0.98046875,0.357421875
78,1597652725319033,-0.47821044921875,0.30584716796875,-0.5599365234375,0.603515625,4.125,0.25,1.25,0.16064453125,-0.9755859375,0.369140625
79,1597652725342028,-0.4776611328125,0.3056640625,-0.56024169921875,0.603759765625,4.0,1.8125,1.1875,0.18017578125,-0.939453125,0.35791015625
80,1597652725363034,-0.47784423828125,0.30645751953125,-0.5599365234375,0.603515625,-3.75,1.875,1.5625,0.16455078125,-0.943359375,0.353515625
81,1597652725379790,-0.478271484375,0.3074951171875,-0.559326171875,0.60321044921875,-6.4375,0.625,2.4375,0.15625,-0.97509765625,0.3681640625
82,1597652725403028,-0.4779052734375,0.30780029296875,-0.55902099609375,0.60357666015625,1.3125,0.4375,2.375,0.1572265625,-0.99560546875,0.373046875
83,1597652725422785,-0.4769287109375,0.30743408203125,-0.55926513671875,0.6043701171875,6.75,0.6875,1.625,0.16162109375,-0.95751953125,0.37353515625
84,1597652725438778,-0.476318359375,0.30670166015625,-0.55938720703125,0.6051025390625,7.5625,-1.5625,1.1875,0.1591796875,-0.9267578125,0.3466796875
85,1597652725461838,-0.475830078125,0.30560302734375,-0.5595703125,0.60589599609375,8.3125,-2.25,1.4375,0.19140625,-0.93603515625,0.35400390625
86,1597652725482773,-0.47515869140625,0.30511474609375,-0.559814453125,0.60638427734375,4.6875,0.5,1.5625,0.1796875,-0.91357421875,0.37939453125
87,1597652725498885,-0.47601318359375,0.305908203125,-0.5589599609375,0.60614013671875,-5.875,-1.5625,2.4375,0.15380859375,-0.90625,0.32373046875
88,1597652725521473,-0.477294921875,0.3062744140625,-0.558349609375,0.60552978515625,-7.75,-3.1875,0.0625,0.17822265625,-0.9306640625,0.35009765625
89,1597652725542469,-0.478515625,0.3052978515625,-0.5579833984375,0.60540771484375,0.5,-7.25,-2.875,0.1806640625,-0.92236328125,0.3193359375
90,1597652725559472,-0.479248046875,0.30242919921875,-0.55859375,0.60565185546875,12.25,-9.625,-9.1875,0.1826171875,-0.875,0.27587890625
91,1597652725581634,-0.47918701171875,0.2974853515625,-0.56121826171875,0.60577392578125,20.9375,-8.125,-17.375,0.23095703125,-0.81005859375,0.3203125
92,1597652725602499,-0.48065185546875,0.29400634765625,-0.5631103515625,0.60455322265625,5.75,-7.6875,-17.625,0.240234375,-0.81005859375,0.32568359375
93,1597652725618899,-0.48406982421875,0.28973388671875,-0.56451416015625,0.6025390625,-3.75,-16.875,-23.8125,0.24755859375,-0.77392578125,0.35009765625
94,1597652725641913,-0.49041748046875,0.2830810546875,-0.5653076171875,0.599853515625,-1.875,-35.6875,-39.0,0.2060546875,-0.7783203125,0.23291015625
95,1597652725663104,-0.49530029296875,0.27099609375,-0.56671142578125,0.60003662109375,31.1875,-53.5625,-49.5625,0.2021484375,-0.98486328125,0.30078125
96,1597652725678904,-0.4952392578125,0.2509765625,-0.57220458984375,0.60357666015625,86.0,-58.9375,-66.8125,0.2529296875,-0.99072265625,0.3935546875
97,1597652725702036,-0.49310302734375,0.22576904296875,-0.58050537109375,0.60736083984375,110.125,-63.5,-85.9375,0.2490234375,-0.93896484375,0.63720703125
98,1597652725722811,-0.4832763671875,0.2203369140625,-0.58343505859375,0.6143798828125,83.5,15.8125,10.5625,0.70263671875,-2.03125,0.91064453125
99,1597652725738626,-0.46368408203125,0.20587158203125,-0.5831298828125,0.634521484375,169.3125,-15.125,49.8125,0.1357421875,-1.09130859375,0.89990234375
100,1597652725762115,-0.45550537109375,0.20233154296875,-0.58270263671875,0.64190673828125,57.3125,-12.8125,-0.6875,-0.29345703125,-0.5390625,0.38623046875
