index,timestamp,orientation_x,orientation_y,orientation_z,orientation_w,gyroscope_x,gyroscope_y,gyroscope_z,acceleration_x,acceleration_y,acceleration_z
0,1597652694561597,-0.45745849609375,0.17474365234375,-0.58819580078125,0.64361572265625,0.25,0.25,-1.4375,0.328125,-0.84765625,0.5390625
1,1597652694577590,-0.45697021484375,0.17437744140625,-0.5885009765625,0.643798828125,3.9375,0.875,-0.8125,0.32275390625,-0.80908203125,0.5263671875
2,1597652694599125,-0.45697021484375,0.17431640625,-0.5885009765625,0.643798828125,0.25,-0.125,-0.5,0.32080078125,-0.791015625,0.53125
3,1597652694622158,-0.45733642578125,0.1744384765625,-0.5885009765625,0.64349365234375,-2.875,-0.5,-0.8125,0.32861328125,-0.82275390625,0.54736328125
4,1597652694636164,-0.45770263671875,0.1746826171875,-0.588623046875,0.64306640625,-2.625,0.5,-1.5625,0.330078125,-0.83642578125,0.53759765625
5,1597652694659168,-0.45770263671875,0.1746826171875,-0.588623046875,0.64306640625,0.125,0.6875,-0.9375,0.31591796875,-0.82275390625,0.53369140625
6,1597652694684542,-0.45745849609375,0.17449951171875,-0.5887451171875,0.6431884765625,1.9375,0.125,-0.25,0.32080078125,-0.8046875,0.5283203125
7,1597652694696657,-0.457275390625,0.17431640625,-0.58868408203125,0.64337158203125,1.375,-0.5,0.25,0.3212890625,-0.8212890625,0.54052734375
8,1597652694719697,-0.4571533203125,0.1741943359375,-0.5888671875,0.64337158203125,1.5625,0.4375,-1.5,0.32275390625,-0.8369140625,0.5400390625
9,1597652694741530,-0.456787109375,0.173828125,-0.589111328125,0.64349365234375,2.5625,0.4375,-0.375,0.32861328125,-0.80810546875,0.54296875
10,1597652694755773,-0.45672607421875,0.173828125,-0.589111328125,0.6435546875,-0.6875,-0.0625,-0.4375,0.31005859375,-0.81103515625,0.533203125
11,1597652694779809,-0.45703125,0.1739501953125,-0.58892822265625,0.64349365234375,-1.6875,-1.0625,0.4375,0.322265625,-0.814453125,0.5380859375
12,1597652694801657,-0.45703125,0.1737060546875,-0.58880615234375,0.6436767578125,1.625,-1.25,0.0,0.32568359375,-0.837890625,0.541015625
13,1597652694816667,-0.45654296875,0.17327880859375,-0.5888671875,0.64404296875,4.375,-0.5625,0.0625,0.31884765625,-0.8212890625,0.5361328125
14,1597652694840005,-0.45611572265625,0.17266845703125,-0.5889892578125,0.6444091796875,4.1875,-0.375,0.0625,0.33056640625,-0.8056640625,0.54248046875
15,1597652694861848,-0.45599365234375,0.1722412109375,-0.5889892578125,0.64453125,2.0625,-0.8125,0.625,0.3369140625,-0.79833984375,0.53125
16,1597652694876659,-0.4561767578125,0.17218017578125,-0.58880615234375,0.6446533203125,0.0,-1.4375,0.6875,0.3232421875,-0.82421875,0.54248046875
17,1597652694899843,-0.456298828125,0.17205810546875,-0.58868408203125,0.64471435546875,0.875,-1.5625,-0.5,0.32666015625,-0.84521484375,0.54443359375
18,1597652694922037,-0.45587158203125,0.1717529296875,-0.58880615234375,0.64495849609375,3.9375,-0.125,-1.5625,0.3076171875,-0.83740234375,0.54638671875
19,1597652694943021,-0.4554443359375,0.17144775390625,-0.5888671875,0.64532470703125,2.875,-1.0625,-1.125,0.29833984375,-0.8212890625,0.5576171875
20,1597652694960188,-0.4556884765625,0.1710205078125,-0.58892822265625,0.6451416015625,-0.75,-2.25,-1.3125,0.3330078125,-0.80224609375,0.548828125
21,1597652694985385,-0.456298828125,0.17120361328125,-0.5888671875,0.644775390625,-4.25,-1.25,-1.0625,0.3330078125,-0.8251953125,0.55615234375
22,1597652695003427,-0.45721435546875,0.17181396484375,-0.58868408203125,0.6441650390625,-7.8125,-2.1875,-2.3125,0.30517578125,-0.8388671875,0.56396484375
23,1597652695019415,-0.45751953125,0.17144775390625,-0.5882568359375,0.6444091796875,-0.625,-4.3125,0.0625,0.3125,-0.8232421875,0.55712890625
24,1597652695041417,-0.4580078125,0.1707763671875,-0.5880126953125,0.64447021484375,-4.1875,-6.1875,0.0,0.33642578125,-0.78759765625,0.60205078125
25,1597652695063065,-0.46142578125,0.17144775390625,-0.5860595703125,0.64361572265625,-20.6875,-14.3125,2.25,0.3046875,-0.77099609375,0.525390625
26,1597652695079416,-0.46661376953125,0.17333984375,-0.58209228515625,0.6429443359375,-25.0625,-17.5,13.0,0.3447265625,-0.84033203125,0.42236328125
27,1597652695101414,-0.46966552734375,0.1729736328125,-0.580078125,0.64263916015625,-8.125,-12.375,6.0625,0.4052734375,-0.84716796875,0.4423828125
28,1597652695122417,-0.47039794921875,0.17388916015625,-0.58013916015625,0.641845703125,-6.5625,1.875,-1.9375,0.32666015625,-0.85302734375,0.50390625
29,1597652695139416,-0.47015380859375,0.17401123046875,-0.57989501953125,0.6422119140625,5.875,-3.5,-6.375,0.19189453125,-0.8837890625,0.45751953125
30,1597652695161416,-0.46722412109375,0.17047119140625,-0.58013916015625,0.64501953125,31.375,-3.9375,3.875,0.3857421875,-0.87451171875,0.53466796875
31,1597652695182414,-0.46343994140625,0.1680908203125,-0.580322265625,0.648193359375,27.875,3.6875,12.5,0.4287109375,-0.8271484375,0.5830078125
32,1597652695199513,-0.46160888671875,0.17144775390625,-0.5784912109375,0.65032958984375,-5.8125,10.4375,25.875,0.34521484375,-0.82568359375,0.6240234375
33,1597652695221415,-0.46368408203125,0.17987060546875,-0.574951171875,0.64971923828125,-36.625,13.4375,25.8125,0.234375,-0.9033203125,0.4931640625
34,1597652695242524,-0.4642333984375,0.18438720703125,-0.57183837890625,0.6507568359375,-14.0625,4.6875,22.125,0.2578125,-0.92529296875,0.50439453125
35,1597652695259432,-0.46112060546875,0.18353271484375,-0.57049560546875,0.6544189453125,24.25,0.4375,19.0,0.3564453125,-0.9658203125,0.58056640625
36,1597652695281428,-0.4561767578125,0.18408203125,-0.56903076171875,0.65899658203125,25.5625,8.5625,26.625,0.30029296875,-0.91259765625,0.609375
37,1597652695306274,-0.45343017578125,0.18597412109375,-0.568115234375,0.6611328125,6.875,7.125,12.375,0.1357421875,-0.71728515625,0.49072265625
38,1597652695319323,-0.455810546875,0.188232421875,-0.568603515625,0.65838623046875,-22.5625,4.125,-9.375,0.23388671875,-0.81103515625,0.50537109375
39,1597652695325068,-0.4560546875,0.1884765625,-0.569580078125,0.6573486328125,-0.375,6.8125,-3.0625,0.35986328125,-0.888671875,0.50146484375
40,1597652695348068,-0.45391845703125,0.18829345703125,-0.57147216796875,0.6572265625,10.1875,13.8125,-1.375,0.3388671875,-0.794921875,0.515625
41,1597652695370394,-0.45294189453125,0.18902587890625,-0.57275390625,0.65655517578125,0.125,8.9375,-5.5,0.21435546875,-0.7109375,0.46337890625
42,1597652695386565,-0.45501708984375,0.1905517578125,-0.57330322265625,0.6541748046875,-19.375,5.0,-4.9375,0.3125,-0.77001953125,0.501953125
43,1597652695407568,-0.45733642578125,0.193359375,-0.57379150390625,0.65130615234375,-25.8125,9.0625,-3.0,0.34033203125,-0.83349609375,0.53271484375
44,1597652695430572,-0.4586181640625,0.19610595703125,-0.57403564453125,0.64935302734375,-19.4375,8.8125,-1.1875,0.29052734375,-0.85107421875,0.53125
45,1597652695446565,-0.45953369140625,0.197509765625,-0.57427978515625,0.6480712890625,-10.75,3.125,-4.1875,0.25146484375,-0.86669921875,0.5185546875
46,1597652695467708,-0.4595947265625,0.1966552734375,-0.57501220703125,0.64764404296875,2.25,-1.6875,-7.875,0.2587890625,-0.84521484375,0.51416015625
47,1597652695489578,-0.45904541015625,0.19537353515625,-0.57611083984375,0.6474609375,5.875,0.375,-6.4375,0.30078125,-0.84521484375,0.5390625
48,1597652695506569,-0.45892333984375,0.19512939453125,-0.57659912109375,0.647216796875,-0.0625,0.75,-3.125,0.27880859375,-0.8251953125,0.52294921875
49,1597652695527568,-0.45941162109375,0.1953125,-0.5767822265625,0.64666748046875,-3.0,0.0625,-2.625,0.28515625,-0.84375,0.5048828125
50,1597652695549588,-0.45892333984375,0.194580078125,-0.5772705078125,0.646728515625,5.6875,-0.125,-3.875,0.27734375,-0.859375,0.517578125
51,1597652695566892,-0.45806884765625,0.1934814453125,-0.57806396484375,0.64697265625,7.0625,0.5625,-3.625,0.29833984375,-0.84326171875,0.5400390625
52,1597652695587549,-0.45843505859375,0.19329833984375,-0.57861328125,0.64630126953125,-2.75,0.0625,-4.8125,0.27978515625,-0.81689453125,0.51953125
53,1597652695610297,-0.45953369140625,0.19329833984375,-0.57879638671875,0.6453857421875,-5.375,-2.0625,-5.375,0.28466796875,-0.8330078125,0.49462890625
54,1597652695624844,-0.45977783203125,0.1923828125,-0.5791015625,0.64520263671875,2.625,-2.6875,-3.625,0.3037109375,-0.83642578125,0.5048828125
55,1597652695647627,-0.459716796875,0.19122314453125,-0.57958984375,0.6451416015625,4.5625,-1.5625,-3.8125,0.3154296875,-0.8330078125,0.51171875
56,1597652695669743,-0.46051025390625,0.19061279296875,-0.57977294921875,0.64459228515625,-2.0,-2.8125,-3.4375,0.306640625,-0.7958984375,0.48876953125
57,1597652695685405,-0.4632568359375,0.1912841796875,-0.5789794921875,0.64312744140625,-14.625,-6.125,-2.6875,0.30029296875,-0.83154296875,0.46142578125
58,1597652695706982,-0.4658203125,0.19183349609375,-0.578369140625,0.6416015625,-14.8125,-7.5,-6.625,0.275390625,-0.8828125,0.51123046875
59,1597652695730426,-0.46771240234375,0.19189453125,-0.57891845703125,0.6397705078125,-13.0625,-4.6875,-12.1875,0.2646484375,-0.8466796875,0.53173828125
60,1597652695746709,-0.46875,0.19036865234375,-0.5806884765625,0.6378173828125,-2.4375,-2.9375,-19.75,0.2880859375,-0.84765625,0.5107421875
61,1597652695767371,-0.4688720703125,0.18731689453125,-0.58270263671875,0.6368408203125,7.0625,-4.125,-15.6875,0.34326171875,-0.76171875,0.49267578125
62,1597652695789557,-0.47039794921875,0.18603515625,-0.5831298828125,0.63568115234375,-7.0625,-6.125,-6.875,0.34423828125,-0.7373046875,0.4951171875
63,1597652695806551,-0.47332763671875,0.187255859375,-0.58209228515625,0.63409423828125,-20.8125,-5.5625,1.0,0.3623046875,-0.833984375,0.50439453125
64,1597652695827769,-0.47515869140625,0.1883544921875,-0.58111572265625,0.63330078125,-12.1875,-3.875,1.125,0.33447265625,-0.9228515625,0.50830078125
65,1597652695849550,-0.47503662109375,0.18798828125,-0.58111572265625,0.63348388671875,2.8125,-2.0,-2.1875,0.3037109375,-0.88623046875,0.5068359375
66,1597652695867567,-0.474853515625,0.18743896484375,-0.5814208984375,0.633544921875,3.0625,-2.0,-5.0,0.279296875,-0.8447265625,0.48974609375
67,1597652695887878,-0.47515869140625,0.18701171875,-0.58172607421875,0.63311767578125,-1.0625,-1.875,-4.125,0.3251953125,-0.857421875,0.50927734375
68,1597652695909871,-0.47601318359375,0.18743896484375,-0.58160400390625,0.63250732421875,-6.5,-1.3125,-2.25,0.32763671875,-0.88232421875,0.513671875
69,1597652695925877,-0.47637939453125,0.187744140625,-0.5816650390625,0.632080078125,-2.9375,0.4375,-1.5,0.32763671875,-0.86474609375,0.4921875
70,1597652695947500,-0.4764404296875,0.1878662109375,-0.58172607421875,0.63189697265625,-1.25,1.125,0.3125,0.3408203125,-0.8427734375,0.4931640625
71,1597652695970368,-0.47662353515625,0.188720703125,-0.58135986328125,0.6318359375,-3.8125,0.25,1.0625,0.29833984375,-0.86767578125,0.49462890625
72,1597652695986090,-0.4764404296875,0.18865966796875,-0.5810546875,0.63232421875,2.75,-1.125,2.375,0.3271484375,-0.88037109375,0.49365234375
73,1597652696006949,-0.47613525390625,0.1885986328125,-0.580810546875,0.63275146484375,1.375,0.3125,3.5625,0.337890625,-0.83056640625,0.49267578125
74,1597652696030097,-0.4764404296875,0.18975830078125,-0.580322265625,0.63262939453125,-6.3125,1.6875,3.8125,0.31494140625,-0.8486328125,0.4970703125
75,1597652696046687,-0.476318359375,0.19061279296875,-0.57989501953125,0.63287353515625,-1.75,1.4375,3.875,0.31591796875,-0.87548828125,0.49462890625
76,1597652696068061,-0.4754638671875,0.19061279296875,-0.5797119140625,0.6336669921875,5.25,1.375,4.0625,0.318359375,-0.8583984375,0.49072265625
77,1597652696090378,-0.47503662109375,0.19122314453125,-0.57904052734375,0.63446044921875,1.0,0.8125,6.8125,0.30712890625,-0.84912109375,0.4873046875
78,1597652696106193,-0.47509765625,0.19219970703125,-0.5782470703125,0.63482666015625,-2.6875,0.8125,6.25,0.3115234375,-0.86328125,0.4814453125
79,1597652696135187,-0.4752197265625,0.19317626953125,-0.57763671875,0.63494873046875,-2.625,1.5625,4.3125,0.314453125,-0.88623046875,0.48193359375
80,1597652696150186,-0.4749755859375,0.19378662109375,-0.57745361328125,0.63519287109375,0.9375,1.4375,1.75,0.2919921875,-0.884765625,0.48486328125
81,1597652696166193,-0.4742431640625,0.1934814453125,-0.57757568359375,0.63568115234375,4.9375,1.0625,0.875,0.30517578125,-0.8408203125,0.48486328125
82,1597652696187296,-0.47393798828125,0.193603515625,-0.5775146484375,0.63592529296875,-0.125,0.9375,2.3125,0.30810546875,-0.82470703125,0.4970703125
83,1597652696218339,-0.474365234375,0.1944580078125,-0.57708740234375,0.6357421875,-5.875,0.8125,3.5625,0.3154296875,-0.83642578125,0.4833984375
84,1597652696226543,-0.4749755859375,0.1953125,-0.5765380859375,0.635498046875,-5.25,0.0625,2.0,0.3017578125,-0.87255859375,0.48193359375
85,1597652696247329,-0.4747314453125,0.19525146484375,-0.57647705078125,0.6357421875,2.875,0.0625,0.625,0.3076171875,-0.8720703125,0.4794921875
86,1597652696269334,-0.47442626953125,0.19476318359375,-0.57666015625,0.635986328125,3.3125,-0.125,0.1875,0.30859375,-0.81787109375,0.47021484375
87,1597652696287337,-0.47503662109375,0.1953125,-0.576416015625,0.63555908203125,-6.0625,0.0,0.8125,0.306640625,-0.81494140625,0.47119140625
88,1597652696307334,-0.475830078125,0.19586181640625,-0.575927734375,0.63525390625,-5.4375,-1.0625,1.875,0.3134765625,-0.8408203125,0.46630859375
89,1597652696329924,-0.47607421875,0.19580078125,-0.575439453125,0.63555908203125,0.375,-1.4375,3.75,0.33154296875,-0.8603515625,0.4697265625
90,1597652696352695,-0.47613525390625,0.19580078125,-0.5748291015625,0.635986328125,1.75,-2.125,3.5625,0.302734375,-0.84423828125,0.45458984375
91,1597652696367787,-0.47625732421875,0.1956787109375,-0.57421875,0.63653564453125,0.1875,-2.9375,4.125,0.302734375,-0.8125,0.46728515625
92,1597652696389501,-0.4764404296875,0.19537353515625,-0.57305908203125,0.63751220703125,0.4375,-6.375,7.0,0.29541015625,-0.80810546875,0.47705078125
93,1597652696415492,-0.47711181640625,0.1947021484375,-0.5706787109375,0.639404296875,5.375,-13.5,9.375,0.28271484375,-0.93017578125,0.47119140625
94,1597652696427509,-0.47503662109375,0.19036865234375,-0.56964111328125,0.64312744140625,35.25,-15.0625,5.875,0.31591796875,-0.9150390625,0.4453125
95,1597652696449521,-0.46844482421875,0.18182373046875,-0.57196044921875,0.64837646484375,68.4375,-7.25,-3.375,0.3759765625,-0.8359375,0.52001953125
96,1597652696475491,-0.4625244140625,0.17498779296875,-0.57330322265625,0.65325927734375,54.9375,-6.6875,2.25,0.3212890625,-0.69580078125,0.50732421875
97,1597652696487847,-0.4593505859375,0.16998291015625,-0.5736083984375,0.65655517578125,34.25,-11.0,1.0625,0.2939453125,-0.703125,0.5146484375
98,1597652696509858,-0.45867919921875,0.1663818359375,-0.5738525390625,0.65771484375,15.0,-11.6875,-4.3125,0.33251953125,-0.787109375,0.56201171875
99,1597652696533188,-0.45892333984375,0.16436767578125,-0.57354736328125,0.65838623046875,7.25,-10.5,-3.1875,0.31298828125,-0.845703125,0.55517578125
100,1597652696546845,-0.45892333984375,0.162841796875,-0.57275390625,0.659423828125,7.9375,-10.5,-1.0,0.28369140625,-0.8720703125,0.56396484375
101,1597652696569858,-0.45916748046875,0.16107177734375,-0.5728759765625,0.65960693359375,8.9375,-8.6875,-8.625,0.2587890625,-0.82421875,0.4873046875
