index,timestamp,orientation_x,orientation_y,orientation_z,orientation_w,gyroscope_x,gyroscope_y,gyroscope_z,acceleration_x,acceleration_y,acceleration_z
0,1597841280769415,0.0601806640625,-0.031982421875,0.8148193359375,-0.57568359375,12.625,4.5625,-2.5,0.05419921875,-0.095703125,0.94189453125
1,1597841280786419,0.05853271484375,-0.03106689453125,0.81573486328125,-0.57464599609375,6.125,5.0625,-7.6875,0.0576171875,-0.06591796875,0.95361328125
2,1597841280808423,0.057373046875,-0.03106689453125,0.8167724609375,-0.5732421875,2.0,7.125,-9.5,0.07177734375,-0.0947265625,0.97802734375
3,1597841280823416,0.05670166015625,-0.03265380859375,0.8172607421875,-0.572509765625,-5.1875,8.125,-4.6875,0.046875,-0.11376953125,0.94384765625
4,1597841280846418,0.05810546875,-0.03515625,0.81707763671875,-0.57244873046875,-15.0,2.75,1.0625,0.06591796875,-0.13818359375,0.9453125
5,1597841280868888,0.05987548828125,-0.037109375,0.8165283203125,-0.572998046875,-10.4375,0.3125,4.5625,0.087890625,-0.18896484375,0.9326171875
6,1597841280883735,0.05999755859375,-0.037109375,0.81591796875,-0.57379150390625,3.25,0.1875,5.6875,0.0712890625,-0.17236328125,0.93896484375
7,1597841280905730,0.05908203125,-0.035400390625,0.81549072265625,-0.57464599609375,11.5,-1.8125,5.125,0.05029296875,-0.12548828125,0.96533203125
8,1597841280928728,0.0584716796875,-0.033447265625,0.81524658203125,-0.5751953125,10.375,-5.0625,2.4375,0.03759765625,-0.11083984375,0.97607421875
9,1597841280942728,0.05810546875,-0.03131103515625,0.81524658203125,-0.5753173828125,11.375,-6.4375,0.0,0.0458984375,-0.1201171875,0.99853515625
10,1597841280965736,0.05718994140625,-0.02874755859375,0.81536865234375,-0.57537841796875,15.0625,-5.0,-1.25,0.046875,-0.11376953125,1.00634765625
11,1597841280989008,0.05621337890625,-0.02630615234375,0.815673828125,-0.5751953125,11.9375,-4.1875,-2.25,0.05126953125,-0.07666015625,1.01904296875
12,1597841281009856,0.0560302734375,-0.02532958984375,0.81591796875,-0.57489013671875,3.8125,-2.5625,-2.5,0.05908203125,-0.0908203125,1.0234375
13,1597841281026737,0.0562744140625,-0.025634765625,0.81610107421875,-0.57452392578125,-2.75,-0.6875,-2.25,0.0556640625,-0.1025390625,1.02587890625
14,1597841281048736,0.05682373046875,-0.02667236328125,0.81622314453125,-0.57427978515625,-6.3125,0.375,-1.6875,0.0546875,-0.1220703125,1.03173828125
15,1597841281069790,0.0574951171875,-0.02789306640625,0.8162841796875,-0.5740966796875,-6.875,0.1875,-0.9375,0.05517578125,-0.12939453125,1.01708984375
16,1597841281086747,0.0579833984375,-0.02874755859375,0.81622314453125,-0.57403564453125,-4.4375,0.375,0.1875,0.06103515625,-0.1357421875,1.0205078125
17,1597841281108742,0.057861328125,-0.0286865234375,0.816162109375,-0.57415771484375,1.625,0.6875,0.6875,0.0654296875,-0.1259765625,0.98974609375
18,1597841281129934,0.057861328125,-0.02850341796875,0.8160400390625,-0.5743408203125,0.625,-0.25,1.25,0.06884765625,-0.1103515625,0.978515625
19,1597841281146742,0.05828857421875,-0.0286865234375,0.815673828125,-0.5748291015625,-0.75,-0.8125,3.375,0.07177734375,-0.13232421875,0.96923828125
20,1597841281168909,0.0584716796875,-0.029052734375,0.8150634765625,-0.57568359375,-0.375,1.0,6.0,0.07275390625,-0.13720703125,0.96435546875
21,1597841281189920,0.05877685546875,-0.02984619140625,0.8143310546875,-0.57666015625,-2.375,1.375,7.1875,0.0732421875,-0.1484375,0.98828125
22,1597841281205909,0.05841064453125,-0.02984619140625,0.8135986328125,-0.5777587890625,1.25,0.1875,7.4375,0.0419921875,-0.11181640625,0.95361328125
23,1597841281228899,0.05950927734375,-0.03125,0.812744140625,-0.5787353515625,-10.9375,-2.5625,7.6875,0.033203125,-0.0947265625,0.91748046875
24,1597841281250189,0.06256103515625,-0.03326416015625,0.81182861328125,-0.57952880859375,-17.6875,-8.75,6.4375,0.046875,-0.14697265625,0.94482421875
25,1597841281265188,0.062744140625,-0.0313720703125,0.811279296875,-0.5804443359375,7.3125,-6.875,5.6875,0.07666015625,-0.11279296875,0.99951171875
26,1597841281289075,0.0614013671875,-0.027587890625,0.811279296875,-0.58074951171875,21.6875,-10.5,-0.3125,0.00537109375,-0.107421875,0.97998046875
27,1597841281310189,0.0582275390625,-0.022216796875,0.81243896484375,-0.57965087890625,33.375,-4.6875,-10.4375,0.0419921875,-0.07861328125,1.0400390625
28,1597841281326244,0.05242919921875,-0.01544189453125,0.814697265625,-0.57733154296875,44.6875,11.3125,-19.0625,0.1611328125,-0.02099609375,1.14501953125
29,1597841281348319,0.0478515625,-0.0125732421875,0.81744384765625,-0.57391357421875,21.125,11.5,-25.1875,0.04443359375,0.0146484375,1.06494140625
30,1597841281370359,0.04669189453125,-0.01165771484375,0.8194580078125,-0.57110595703125,-0.8125,1.75,-19.3125,0.04345703125,0.04248046875,0.99462890625
31,1597841281392354,0.04925537109375,-0.0145263671875,0.82037353515625,-0.56951904296875,-25.875,2.6875,-9.3125,0.13623046875,-0.02783203125,1.00244140625
32,1597841281408349,0.05340576171875,-0.0205078125,0.82098388671875,-0.56805419921875,-42.9375,1.875,-7.375,0.0869140625,-0.07763671875,0.95263671875
33,1597841281429732,0.05902099609375,-0.02764892578125,0.82135009765625,-0.56671142578125,-45.0,-3.4375,-6.6875,0.05224609375,-0.2109375,0.92724609375
34,1597841281445353,0.06182861328125,-0.02978515625,0.821533203125,-0.56597900390625,-5.9375,-4.6875,-4.5,0.08642578125,-0.30810546875,0.93896484375
35,1597841281468343,0.0595703125,-0.02557373046875,0.822021484375,-0.565673828125,33.875,-2.125,-4.5625,0.0771484375,-0.20654296875,0.9794921875
36,1597841281491369,0.05584716796875,-0.01947021484375,0.82220458984375,-0.5660400390625,42.5,-3.0,-0.6875,0.060546875,-0.1162109375,1.01220703125
37,1597841281505349,0.052734375,-0.01458740234375,0.82177734375,-0.567138671875,31.5625,0.0,5.5625,0.0908203125,-0.05908203125,1.02001953125
38,1597841281528360,0.05047607421875,-0.01202392578125,0.82110595703125,-0.56842041015625,14.5625,1.1875,8.0,0.05615234375,-0.00390625,0.98291015625
39,1597841281551579,0.05084228515625,-0.013671875,0.8206787109375,-0.56890869140625,-11.9375,-0.8125,4.0,0.00830078125,-0.04150390625,1.00244140625
40,1597841281572243,0.05340576171875,-0.0164794921875,0.82025146484375,-0.56927490234375,-18.3125,-4.5,3.375,0.04638671875,-0.13037109375,0.97802734375
41,1597841281588570,0.05450439453125,-0.01702880859375,0.81976318359375,-0.56982421875,-1.25,-2.875,3.6875,0.07861328125,-0.15966796875,0.99609375
42,1597841281611260,0.05316162109375,-0.01556396484375,0.8194580078125,-0.57037353515625,12.9375,1.125,3.25,0.06884765625,-0.11181640625,1.01171875
43,1597841281625237,0.05126953125,-0.01416015625,0.81939697265625,-0.5706787109375,9.3125,2.375,1.4375,0.044921875,-0.03173828125,1.00244140625
44,1597841281649090,0.0513916015625,-0.0140380859375,0.8194580078125,-0.5706787109375,-4.0,-3.125,-0.25,0.03515625,-0.0224609375,0.96875
45,1597841281672356,0.05328369140625,-0.014892578125,0.81939697265625,-0.570556640625,-11.125,-5.8125,-0.25,0.0751953125,-0.0712890625,0.98681640625
46,1597841281685116,0.05462646484375,-0.01519775390625,0.8193359375,-0.5704345703125,-3.625,-3.125,-0.25,0.10009765625,-0.12158203125,1.0078125
47,1597841281709174,0.0540771484375,-0.01446533203125,0.81951904296875,-0.57025146484375,6.4375,0.9375,-1.75,0.0859375,-0.10546875,1.021484375
48,1597841281731742,0.0528564453125,-0.01361083984375,0.81976318359375,-0.570068359375,6.0,1.875,-2.0,0.05419921875,-0.0595703125,1.0234375
49,1597841281745959,0.052978515625,-0.013671875,0.82000732421875,-0.56976318359375,-3.5625,-1.8125,-2.0625,0.0517578125,-0.04248046875,0.98291015625
50,1597841281768417,0.0540771484375,-0.01422119140625,0.82025146484375,-0.56927490234375,-6.0625,-2.6875,-2.875,0.08154296875,-0.0908203125,0.99755859375
51,1597841281791402,0.0546875,-0.0140380859375,0.82049560546875,-0.56884765625,1.9375,-0.6875,-3.125,0.11279296875,-0.1298828125,1.0224609375
52,1597841281805668,0.05322265625,-0.01239013671875,0.82073974609375,-0.568603515625,12.6875,3.1875,-2.125,0.09716796875,-0.087890625,1.0244140625
53,1597841281828679,0.05120849609375,-0.0107421875,0.821044921875,-0.5684814453125,11.3125,3.5,-1.9375,0.0673828125,-0.0390625,1.02587890625
54,1597841281850813,0.051025390625,-0.0108642578125,0.8211669921875,-0.56829833984375,-3.125,0.25,-1.0,0.0576171875,-0.0322265625,1.00146484375
55,1597841281865743,0.05218505859375,-0.01239013671875,0.821044921875,-0.56829833984375,-11.25,-0.875,0.8125,0.06201171875,-0.07568359375,0.9814453125
56,1597841281888960,0.05328369140625,-0.0135498046875,0.8209228515625,-0.568359375,-6.5625,-0.5625,0.5625,0.0859375,-0.12060546875,0.9775390625
57,1597841281910883,0.05279541015625,-0.012939453125,0.82098388671875,-0.568359375,7.0,1.25,-0.375,0.0849609375,-0.11572265625,0.98974609375
58,1597841281925758,0.05120849609375,-0.01153564453125,0.82110595703125,-0.568359375,12.8125,3.0,-0.875,0.07080078125,-0.08984375,0.9892578125
59,1597841281948769,0.049560546875,-0.01025390625,0.82122802734375,-0.568359375,9.5,3.0625,-0.375,0.06201171875,-0.05029296875,0.98974609375
60,1597841281970785,0.0487060546875,-0.0096435546875,0.82122802734375,-0.56842041015625,3.5,1.875,0.25,0.06494140625,-0.0400390625,0.99853515625
61,1597841281991784,0.04888916015625,-0.0101318359375,0.82122802734375,-0.568359375,-3.6875,-0.1875,-0.25,0.0595703125,-0.06103515625,0.9814453125
62,1597841282008957,0.049560546875,-0.0107421875,0.8211669921875,-0.568359375,-3.5625,-0.375,0.1875,0.07373046875,-0.0966796875,0.9765625
63,1597841282031062,0.0494384765625,-0.0106201171875,0.8211669921875,-0.56842041015625,3.0,0.875,0.25,0.07861328125,-0.1005859375,0.98388671875
64,1597841282052115,0.04840087890625,-0.00970458984375,0.8211669921875,-0.5684814453125,7.5,1.9375,0.0625,0.07080078125,-0.06787109375,0.99169921875
65,1597841282069133,0.0477294921875,-0.00921630859375,0.82122802734375,-0.56854248046875,2.5,1.125,0.0,0.06103515625,-0.0390625,0.9765625
66,1597841282091025,0.048095703125,-0.0098876953125,0.82122802734375,-0.56842041015625,-5.1875,-0.3125,-0.375,0.05712890625,-0.060546875,0.98095703125
67,1597841282112525,0.048828125,-0.01055908203125,0.82122802734375,-0.56842041015625,-4.125,-0.9375,0.25,0.0693359375,-0.09375,0.98486328125
68,1597841282129022,0.0484619140625,-0.01019287109375,0.8211669921875,-0.56854248046875,4.25,0.9375,0.5,0.07421875,-0.09130859375,0.9990234375
69,1597841282151444,0.047607421875,-0.00946044921875,0.8211669921875,-0.568603515625,5.5,1.25,0.1875,0.0625,-0.06201171875,0.98974609375
70,1597841282172358,0.047607421875,-0.0093994140625,0.8211669921875,-0.568603515625,0.6875,0.5,0.0625,0.06689453125,-0.044921875,0.98193359375
71,1597841282189273,0.04791259765625,-0.0098876953125,0.8211669921875,-0.568603515625,-4.125,0.0625,0.125,0.06884765625,-0.06201171875,0.9912109375
72,1597841282211266,0.04827880859375,-0.01055908203125,0.8211669921875,-0.56854248046875,-3.875,-0.25,-0.125,0.05908203125,-0.080078125,0.99462890625
73,1597841282233258,0.04833984375,-0.0106201171875,0.8211669921875,-0.56854248046875,-0.1875,0.125,-0.375,0.06689453125,-0.08642578125,0.98828125
74,1597841282248273,0.04779052734375,-0.01025390625,0.8211669921875,-0.568603515625,3.375,1.125,0.0,0.06298828125,-0.0703125,0.99267578125
75,1597841282275663,0.04742431640625,-0.0101318359375,0.82110595703125,-0.56866455078125,1.0625,0.625,0.375,0.0556640625,-0.0654296875,0.98681640625
76,1597841282294596,0.04766845703125,-0.01043701171875,0.82110595703125,-0.56866455078125,-2.0625,-0.6875,0.3125,0.05810546875,-0.0732421875,0.98681640625
77,1597841282309603,0.04791259765625,-0.0106201171875,0.821044921875,-0.56866455078125,-1.0625,-0.8125,0.0625,0.06494140625,-0.07958984375,0.98974609375
78,1597841282331597,0.04791259765625,-0.0106201171875,0.821044921875,-0.56866455078125,0.25,-0.9375,-0.4375,0.05615234375,-0.07373046875,0.98974609375
79,1597841282352482,0.04791259765625,-0.0106201171875,0.821044921875,-0.56866455078125,0.0,-0.8125,-0.625,0.06982421875,-0.07470703125,0.99267578125
80,1597841282368478,0.0479736328125,-0.0106201171875,0.821044921875,-0.56866455078125,0.75,-1.0,-0.375,0.068359375,-0.0771484375,0.99658203125
81,1597841282391477,0.048095703125,-0.01043701171875,0.821044921875,-0.5687255859375,0.1875,-1.5,0.0,0.06396484375,-0.06884765625,0.98828125
82,1597841282413479,0.0484619140625,-0.01055908203125,0.82098388671875,-0.56878662109375,-1.6875,-1.75,0.5,0.06298828125,-0.07470703125,0.99951171875
83,1597841282428584,0.0487060546875,-0.01055908203125,0.8209228515625,-0.56884765625,-0.4375,-1.4375,0.625,0.0634765625,-0.07666015625,1.00390625
84,1597841282451486,0.048583984375,-0.01019287109375,0.82086181640625,-0.5689697265625,1.4375,-1.1875,0.5625,0.06298828125,-0.0654296875,1.0009765625
85,1597841282473371,0.04876708984375,-0.00994873046875,0.82073974609375,-0.569091796875,0.25,-1.6875,0.75,0.0654296875,-0.06689453125,0.99560546875
86,1597841282489523,0.04901123046875,-0.00982666015625,0.8206787109375,-0.5692138671875,-0.1875,-1.1875,0.75,0.07568359375,-0.07373046875,0.9931640625
87,1597841282511377,0.04901123046875,-0.00982666015625,0.8206787109375,-0.5692138671875,0.625,-0.3125,0.8125,0.07470703125,-0.07861328125,1.0
88,1597841282533881,0.04888916015625,-0.00970458984375,0.820556640625,-0.5693359375,1.375,0.5,0.9375,0.0732421875,-0.076171875,1.00634765625
89,1597841282548665,0.04888916015625,-0.00970458984375,0.820556640625,-0.5693359375,0.9375,0.8125,0.75,0.07373046875,-0.0693359375,1.0
90,1597841282572085,0.04888916015625,-0.009765625,0.82049560546875,-0.56951904296875,-1.1875,-0.0625,0.9375,0.06591796875,-0.06103515625,0.998046875
91,1597841282594214,0.04901123046875,-0.010009765625,0.8203125,-0.56964111328125,-1.75,-0.125,1.25,0.06591796875,-0.07177734375,1.0029296875
92,1597841282608088,0.0489501953125,-0.00994873046875,0.82025146484375,-0.56982421875,0.9375,0.25,1.125,0.07275390625,-0.0810546875,1.00341796875
93,1597841282631099,0.0487060546875,-0.009521484375,0.820068359375,-0.57012939453125,2.375,0.375,1.8125,0.07666015625,-0.060546875,0.984375
94,1597841282653843,0.048583984375,-0.009521484375,0.81988525390625,-0.57037353515625,0.0625,0.1875,1.8125,0.0654296875,-0.06396484375,0.99462890625
95,1597841282668101,0.04852294921875,-0.009521484375,0.8197021484375,-0.57061767578125,0.375,0.0625,1.625,0.06787109375,-0.07470703125,0.98828125
96,1597841282690822,0.04827880859375,-0.00921630859375,0.819580078125,-0.57086181640625,2.375,0.875,1.4375,0.07470703125,-0.07275390625,0.99169921875
97,1597841282714249,0.04791259765625,-0.0089111328125,0.81939697265625,-0.57110595703125,2.1875,0.875,1.875,0.0712890625,-0.06298828125,0.98974609375
98,1597841282727818,0.04779052734375,-0.00897216796875,0.81927490234375,-0.57135009765625,-0.625,0.3125,1.5,0.06494140625,-0.060546875,0.9912109375
99,1597841282751476,0.04803466796875,-0.00921630859375,0.81915283203125,-0.57147216796875,-1.875,-0.3125,0.8125,0.068359375,-0.06640625,0.98828125
