index,timestamp,orientation_x,orientation_y,orientation_z,orientation_w,gyroscope_x,gyroscope_y,gyroscope_z,acceleration_x,acceleration_y,acceleration_z
0,1596964107409692,-0.102294921875,0.066650390625,-0.6046142578125,-0.787109375,4.9375,-1.1875,-1.5,0.20361328125,0.1025390625,0.9609375
1,1596964107424689,-0.10321044921875,0.06597900390625,-0.6046142578125,-0.787109375,7.9375,-2.25,-0.75,0.1943359375,0.064453125,0.96044921875
2,1596964107447692,-0.10400390625,0.06536865234375,-0.60491943359375,-0.78680419921875,7.6875,-1.6875,1.0625,0.20166015625,0.0546875,0.9677734375
3,1596964107469689,-0.10546875,0.06414794921875,-0.604736328125,-0.786865234375,12.5,-0.875,-2.3125,0.21728515625,0.06396484375,0.990234375
4,1596964107484699,-0.1068115234375,0.0633544921875,-0.60528564453125,-0.78631591796875,13.375,-1.75,2.125,0.20556640625,0.02490234375,0.9248046875
5,1596964107507689,-0.10888671875,0.06219482421875,-0.605712890625,-0.78582763671875,14.75,-1.0625,2.0625,0.23388671875,0.0810546875,0.93798828125
6,1596964107529690,-0.1099853515625,0.06121826171875,-0.6046142578125,-0.78656005859375,2.1875,0.375,-7.4375,0.2265625,0.17236328125,0.92529296875
7,1596964107543690,-0.1094970703125,0.0611572265625,-0.60418701171875,-0.78692626953125,-3.25,0.375,-2.5625,0.216796875,0.1142578125,1.00927734375
8,1596964107566693,-0.10870361328125,0.06146240234375,-0.60546875,-0.78607177734375,3.1875,-0.625,7.75,0.1943359375,0.00048828125,0.99365234375
9,1596964107590690,-0.11090087890625,0.06048583984375,-0.6072998046875,-0.784423828125,20.1875,-5.0625,11.6875,0.189453125,0.01513671875,0.9443359375
10,1596964107603696,-0.115478515625,0.05755615234375,-0.6072998046875,-0.783935546875,26.0,-3.0625,-0.625,0.228515625,0.189453125,0.96533203125
11,1596964107627696,-0.11865234375,0.0556640625,-0.60589599609375,-0.78472900390625,8.4375,-3.625,-8.6875,0.22216796875,0.2822265625,0.95556640625
12,1596964107649813,-0.116943359375,0.056640625,-0.60626220703125,-0.78460693359375,-10.0,-0.5,3.3125,0.205078125,0.10302734375,1.00439453125
13,1596964107670824,-0.11578369140625,0.05804443359375,-0.60845947265625,-0.78302001953125,-0.5625,-6.75,15.5,0.15966796875,-0.00048828125,0.990234375
14,1596964107686813,-0.1197509765625,0.0557861328125,-0.6085205078125,-0.78253173828125,29.4375,-9.5625,-1.1875,0.16796875,0.078125,1.03857421875
15,1596964107709811,-0.12591552734375,0.052490234375,-0.60760498046875,-0.782470703125,33.6875,-8.4375,-6.6875,0.2197265625,0.212890625,0.982421875
16,1596964107730821,-0.12933349609375,0.05084228515625,-0.60992431640625,-0.7802734375,31.4375,-7.0625,14.375,0.1923828125,0.0224609375,0.98583984375
17,1596964107752813,-0.132080078125,0.0469970703125,-0.61346435546875,-0.7772216796875,40.3125,7.5625,20.4375,0.23681640625,-0.00048828125,1.080078125
18,1596964107769816,-0.13720703125,0.039306640625,-0.61474609375,-0.7757568359375,56.9375,9.9375,3.3125,0.119140625,0.0732421875,0.92236328125
19,1596964107790815,-0.1455078125,0.03167724609375,-0.616455078125,-0.77325439453125,63.9375,2.0625,9.625,0.171875,0.2099609375,0.91552734375
20,1596964107808814,-0.15216064453125,0.0260009765625,-0.61962890625,-0.7696533203125,62.3125,-0.6875,19.375,0.14990234375,0.05078125,0.90625
21,1596964107829810,-0.16253662109375,0.02069091796875,-0.62225341796875,-0.76556396484375,64.6875,-4.625,19.1875,0.31494140625,0.25732421875,0.841796875
22,1596964107850811,-0.172119140625,0.0167236328125,-0.62164306640625,-0.7640380859375,47.9375,-10.4375,-1.5,0.322265625,0.361328125,0.83984375
23,1596964107866812,-0.177978515625,0.0150146484375,-0.6220703125,-0.76239013671875,23.0625,-5.5,6.3125,0.33642578125,0.38720703125,0.8525390625
24,1596964107889811,-0.18121337890625,0.01348876953125,-0.621826171875,-0.7618408203125,12.1875,-3.1875,0.5,0.26123046875,0.3603515625,0.8681640625
25,1596964107910812,-0.18304443359375,0.01409912109375,-0.62066650390625,-0.7623291015625,-0.875,-5.1875,-6.125,0.30224609375,0.33154296875,0.857421875
26,1596964107926811,-0.1829833984375,0.01409912109375,-0.6202392578125,-0.7626953125,-2.1875,1.3125,-3.375,0.27392578125,0.2822265625,0.9326171875
27,1596964107949823,-0.18218994140625,0.0130615234375,-0.62091064453125,-0.7623291015625,6.1875,0.4375,3.875,0.13916015625,0.185546875,0.9619140625
28,1596964107970821,-0.18505859375,0.01068115234375,-0.622314453125,-0.76055908203125,29.9375,-3.5625,9.1875,0.171875,0.16357421875,0.94384765625
29,1596964107986812,-0.191650390625,0.00714111328125,-0.623046875,-0.75836181640625,43.75,-6.0625,6.1875,0.259765625,0.267578125,0.8779296875
30,1596964108009812,-0.196533203125,0.0048828125,-0.6221923828125,-0.7578125,22.8125,-2.875,-4.0,0.3291015625,0.39208984375,0.89794921875
31,1596964108030819,-0.1954345703125,0.00457763671875,-0.6217041015625,-0.758544921875,-6.875,1.0625,-3.5625,0.185546875,0.3125,0.888671875
32,1596964108046815,-0.19268798828125,0.0072021484375,-0.62176513671875,-0.7591552734375,-17.6875,-3.3125,0.6875,0.21240234375,0.20458984375,0.87451171875
33,1596964108069811,-0.19158935546875,0.00970458984375,-0.62158203125,-0.75958251953125,-11.0,-5.125,-1.1875,0.2705078125,0.2138671875,0.876953125
34,1596964108090812,-0.19140625,0.01025390625,-0.62109375,-0.760009765625,-1.8125,-1.75,-3.5,0.263671875,0.2587890625,0.94482421875
35,1596964108106812,-0.1915283203125,0.00921630859375,-0.620361328125,-0.76055908203125,1.75,-2.0,-4.375,0.169921875,0.3056640625,0.91455078125
36,1596964108129813,-0.1915283203125,0.01043701171875,-0.62017822265625,-0.76068115234375,-3.5,-6.5,0.1875,0.22607421875,0.251953125,0.89453125
37,1596964108150819,-0.19195556640625,0.01214599609375,-0.620361328125,-0.76043701171875,-1.625,-7.25,2.125,0.27099609375,0.224609375,0.88134765625
38,1596964108167814,-0.193115234375,0.0123291015625,-0.62005615234375,-0.7603759765625,2.6875,-3.6875,-0.875,0.27587890625,0.298828125,0.90283203125
39,1596964108189811,-0.19403076171875,0.0113525390625,-0.619384765625,-0.7607421875,2.375,-1.3125,-3.5625,0.228515625,0.3447265625,0.91015625
40,1596964108210811,-0.19366455078125,0.0113525390625,-0.61920166015625,-0.76092529296875,-2.0625,-1.0,-0.6875,0.2236328125,0.28369140625,0.92626953125
41,1596964108226821,-0.1932373046875,0.01202392578125,-0.61932373046875,-0.760986328125,-2.5,-2.625,0.9375,0.2294921875,0.244140625,0.89501953125
42,1596964108249814,-0.1937255859375,0.0126953125,-0.61944580078125,-0.7607421875,1.625,-3.6875,1.25,0.259765625,0.23876953125,0.88134765625
43,1596964108270833,-0.194580078125,0.01251220703125,-0.619140625,-0.7607421875,3.25,-2.0625,-1.375,0.2626953125,0.29443359375,0.90185546875
44,1596964108286814,-0.194580078125,0.01214599609375,-0.61871337890625,-0.7611083984375,-0.25,-0.5,-2.9375,0.23095703125,0.29052734375,0.916015625
45,1596964108309813,-0.1942138671875,0.01239013671875,-0.61865234375,-0.76123046875,-1.5625,-1.5625,-0.3125,0.2294921875,0.25927734375,0.91162109375
46,1596964108331825,-0.194091796875,0.01275634765625,-0.61859130859375,-0.76129150390625,-1.5625,-1.625,0.125,0.24560546875,0.26318359375,0.888671875
47,1596964108346823,-0.19451904296875,0.01300048828125,-0.61859130859375,-0.76123046875,1.6875,-2.6875,0.1875,0.24853515625,0.26220703125,0.892578125
48,1596964108369812,-0.19476318359375,0.012939453125,-0.61846923828125,-0.76123046875,-0.125,-1.0625,-0.3125,0.2568359375,0.29833984375,0.92626953125
49,1596964108391814,-0.19427490234375,0.01263427734375,-0.61822509765625,-0.7615966796875,-0.3125,-0.375,-1.875,0.212890625,0.271484375,0.9423828125
50,1596964108406815,-0.19415283203125,0.0126953125,-0.61834716796875,-0.761474609375,1.375,-1.75,1.125,0.2275390625,0.2470703125,0.9169921875
51,1596964108429813,-0.19464111328125,0.01275634765625,-0.61834716796875,-0.7613525390625,2.8125,-2.5625,0.1875,0.24365234375,0.2568359375,0.89453125
52,1596964108451812,-0.1956787109375,0.01251220703125,-0.61846923828125,-0.760986328125,5.25,-2.375,1.5625,0.25244140625,0.27392578125,0.87744140625
53,1596964108466823,-0.1968994140625,0.01263427734375,-0.618408203125,-0.7607421875,2.9375,-2.625,0.25,0.28173828125,0.298828125,0.86572265625
54,1596964108489819,-0.19696044921875,0.0128173828125,-0.6180419921875,-0.76104736328125,-2.3125,-0.125,-2.1875,0.2763671875,0.3056640625,0.912109375
55,1596964108511811,-0.19586181640625,0.0123291015625,-0.6180419921875,-0.76129150390625,-1.4375,1.3125,-0.75,0.19873046875,0.2568359375,0.9404296875
56,1596964108533840,-0.1954345703125,0.012451171875,-0.6182861328125,-0.76123046875,0.8125,-1.375,1.3125,0.21240234375,0.23095703125,0.9091796875
57,1596964108549815,-0.19598388671875,0.012451171875,-0.61834716796875,-0.76104736328125,3.3125,-1.5625,0.75,0.2626953125,0.26318359375,0.89794921875
58,1596964108571820,-0.19659423828125,0.01239013671875,-0.6181640625,-0.76104736328125,1.8125,-1.8125,-0.6875,0.2626953125,0.29541015625,0.90478515625
59,1596964108586810,-0.19647216796875,0.01251220703125,-0.61798095703125,-0.76123046875,-2.0,-0.75,-1.125,0.25,0.29052734375,0.91259765625
60,1596964108609813,-0.19580078125,0.0128173828125,-0.61785888671875,-0.761474609375,-3.6875,-0.5,-0.625,0.23388671875,0.267578125,0.900390625
61,1596964108631811,-0.19549560546875,0.01318359375,-0.617919921875,-0.761474609375,-1.4375,-1.0625,0.4375,0.2412109375,0.25439453125,0.89599609375
62,1596964108646816,-0.19580078125,0.01318359375,-0.61785888671875,-0.761474609375,1.0,-1.4375,-0.25,0.2548828125,0.27685546875,0.9033203125
63,1596964108669814,-0.19610595703125,0.01287841796875,-0.61773681640625,-0.76153564453125,1.75,-0.8125,-0.625,0.24755859375,0.29150390625,0.9208984375
64,1596964108691935,-0.19610595703125,0.01287841796875,-0.61773681640625,-0.76153564453125,-0.25,-0.4375,-0.5625,0.2392578125,0.2802734375,0.91259765625
65,1596964108707935,-0.19549560546875,0.01324462890625,-0.61761474609375,-0.76171875,-3.4375,-0.9375,-0.625,0.2392578125,0.265625,0.9052734375
66,1596964108729936,-0.1949462890625,0.013671875,-0.61761474609375,-0.76190185546875,-2.8125,-1.0625,0.0625,0.23779296875,0.25244140625,0.9091796875
67,1596964108751938,-0.19488525390625,0.013671875,-0.61761474609375,-0.76190185546875,-0.0625,-0.5,-0.125,0.2373046875,0.25830078125,0.8974609375
68,1596964108766935,-0.1953125,0.01348876953125,-0.6175537109375,-0.7618408203125,2.75,-1.0,-0.625,0.2548828125,0.2734375,0.90234375
69,1596964108789936,-0.1953125,0.013427734375,-0.61749267578125,-0.7618408203125,0.1875,-0.625,-0.6875,0.25,0.27978515625,0.90625
70,1596964108811935,-0.1949462890625,0.013427734375,-0.61761474609375,-0.76190185546875,-1.1875,-0.0625,0.375,0.232421875,0.265625,0.90771484375
71,1596964108832934,-0.19488525390625,0.013427734375,-0.61761474609375,-0.76190185546875,-0.4375,0.0,0.8125,0.2353515625,0.2626953125,0.89404296875
72,1596964108849934,-0.19482421875,0.013671875,-0.61749267578125,-0.76202392578125,-1.375,-0.625,-0.8125,0.26220703125,0.2724609375,0.89501953125
73,1596964108871935,-0.19464111328125,0.01361083984375,-0.61749267578125,-0.76202392578125,1.0,-0.5,0.125,0.236328125,0.2568359375,0.9296875
74,1596964108892941,-0.19482421875,0.01348876953125,-0.6175537109375,-0.761962890625,1.5,-1.5,0.625,0.23291015625,0.27099609375,0.91015625
75,1596964108909935,-0.1949462890625,0.01373291015625,-0.61749267578125,-0.761962890625,-0.9375,-1.5625,0.1875,0.25732421875,0.2783203125,0.890625
76,1596964108931934,-0.1947021484375,0.013916015625,-0.61737060546875,-0.7620849609375,-2.375,0.0625,-0.875,0.25341796875,0.27880859375,0.89111328125
77,1596964108952937,-0.19427490234375,0.0140380859375,-0.61737060546875,-0.76220703125,-2.75,0.125,0.0625,0.23779296875,0.27001953125,0.89404296875
78,1596964108969936,-0.19476318359375,0.01336669921875,-0.61712646484375,-0.7623291015625,2.8125,1.4375,-2.1875,0.26318359375,0.29833984375,0.89990234375
79,1596964108991936,-0.197509765625,0.01165771484375,-0.6142578125,-0.76397705078125,5.375,-2.8125,-18.125,0.271484375,0.41845703125,0.8193359375
80,1596964109012934,-0.19525146484375,0.01544189453125,-0.6123046875,-0.76605224609375,-29.3125,-5.875,-12.0625,0.30419921875,0.2998046875,0.81396484375
81,1596964109029947,-0.18975830078125,0.02215576171875,-0.61163330078125,-0.767822265625,-46.75,-6.4375,-3.375,0.3203125,0.20361328125,0.873046875
82,1596964109051933,-0.183837890625,0.02703857421875,-0.611572265625,-0.76910400390625,-36.1875,1.125,-1.75,0.31591796875,0.146484375,1.0166015625
83,1596964109072932,-0.1788330078125,0.0257568359375,-0.61151123046875,-0.7703857421875,-14.4375,9.8125,-2.8125,0.078125,0.1962890625,1.021484375
84,1596964109089934,-0.17529296875,0.02606201171875,-0.61126708984375,-0.7713623046875,-16.625,-0.0625,-1.3125,0.07861328125,0.21240234375,0.9052734375
85,1596964109111933,-0.1773681640625,0.02728271484375,-0.61016845703125,-0.77178955078125,-0.125,-13.375,-4.375,0.23876953125,0.28173828125,0.83984375
86,1596964109140935,-0.17822265625,0.033935546875,-0.60858154296875,-0.77252197265625,-27.9375,-21.5625,-4.125,0.38525390625,0.28564453125,0.6904296875
87,1596964109149935,-0.171875,0.0457763671875,-0.608154296875,-0.773681640625,-76.875,-8.0625,4.0625,0.55419921875,0.25537109375,0.7099609375
88,1596964109171934,-0.16033935546875,0.05621337890625,-0.60919189453125,-0.774658203125,-79.375,0.4375,10.75,0.33544921875,0.02734375,0.8564453125
89,1596964109192936,-0.1536865234375,0.0615234375,-0.609375,-0.77545166015625,-36.6875,-5.1875,2.125,0.22900390625,-0.00439453125,1.0322265625
90,1596964109209935,-0.15057373046875,0.062255859375,-0.6077880859375,-0.77728271484375,-14.5,4.9375,-12.625,0.27490234375,0.1083984375,1.01416015625
91,1596964109232934,-0.1456298828125,0.0628662109375,-0.607177734375,-0.77862548828125,-30.3125,13.4375,-3.5625,0.25927734375,0.2197265625,0.943359375
92,1596964109254936,-0.13934326171875,0.0638427734375,-0.60638427734375,-0.78033447265625,-33.875,9.0,-4.9375,0.17041015625,0.16796875,1.05859375
93,1596964109268935,-0.13116455078125,0.06451416015625,-0.60650634765625,-0.78155517578125,-34.1875,11.8125,0.125,0.09912109375,0.064453125,1.1318359375
94,1596964109291934,-0.12384033203125,0.06414794921875,-0.6063232421875,-0.782958984375,-30.3125,14.25,-2.1875,0.080078125,0.09326171875,1.0693359375
95,1596964109315937,-0.12091064453125,0.06280517578125,-0.60577392578125,-0.783935546875,-13.625,6.3125,-3.375,0.119140625,0.181640625,1.03271484375
96,1596964109328932,-0.11785888671875,0.06207275390625,-0.6044921875,-0.78546142578125,-12.3125,1.8125,-9.5,0.07568359375,0.10791015625,1.00341796875
97,1596964109351934,-0.1156005859375,0.0633544921875,-0.6038818359375,-0.7861328125,-12.5,-1.625,-3.75,0.18505859375,0.0634765625,0.94140625
98,1596964109374934,-0.1160888671875,0.06451416015625,-0.603759765625,-0.78607177734375,-1.125,-0.125,-0.6875,0.33251953125,0.087890625,0.923828125
99,1596964109389937,-0.1163330078125,0.064453125,-0.60345458984375,-0.78631591796875,0.3125,3.3125,-2.5625,0.29248046875,0.1123046875,0.939453125
