index,timestamp,orientation_x,orientation_y,orientation_z,orientation_w,gyroscope_x,gyroscope_y,gyroscope_z,acceleration_x,acceleration_y,acceleration_z
0,1597982314346583,-0.0263671875,-0.52569580078125,0.68133544921875,0.5086669921875,15.9375,5.1875,6.25,0.47802734375,-0.76123046875,0.46337890625
1,1597982314361585,-0.02630615234375,-0.5233154296875,0.6832275390625,0.508544921875,14.0625,5.125,5.5,0.47607421875,-0.72412109375,0.46044921875
2,1597982314384573,-0.0263671875,-0.52191162109375,0.68414306640625,0.50872802734375,6.4375,4.0625,3.375,0.48291015625,-0.7001953125,0.46337890625
3,1597982314406583,-0.026611328125,-0.5213623046875,0.68438720703125,0.50897216796875,0.375,3.0,2.125,0.49658203125,-0.70263671875,0.46337890625
4,1597982314421584,-0.02679443359375,-0.5213623046875,0.684326171875,0.509033203125,-1.8125,1.0625,1.5625,0.50732421875,-0.71337890625,0.45751953125
5,1597982314444574,-0.02679443359375,-0.52166748046875,0.68408203125,0.509033203125,-3.125,-0.5,1.125,0.51416015625,-0.7177734375,0.462890625
6,1597982314466707,-0.02630615234375,-0.52215576171875,0.68377685546875,0.509033203125,-2.625,-2.9375,-0.375,0.51708984375,-0.71484375,0.458984375
7,1597982314481716,-0.025634765625,-0.5230712890625,0.68328857421875,0.5087890625,-3.8125,-4.8125,0.0625,0.53662109375,-0.72412109375,0.45361328125
8,1597982314504810,-0.02545166015625,-0.5242919921875,0.6827392578125,0.50823974609375,-5.5625,-4.4375,1.0,0.53515625,-0.76025390625,0.44775390625
9,1597982314526810,-0.025634765625,-0.5252685546875,0.68231201171875,0.5078125,-4.8125,-2.5625,1.625,0.5302734375,-0.7705078125,0.447265625
10,1597982314540810,-0.02593994140625,-0.525634765625,0.68218994140625,0.50750732421875,-2.375,-0.625,1.3125,0.51513671875,-0.775390625,0.45849609375
11,1597982314564813,-0.02618408203125,-0.52618408203125,0.68182373046875,0.50750732421875,-3.125,-0.25,-0.625,0.50341796875,-0.75634765625,0.43310546875
12,1597982314586808,-0.02630615234375,-0.5260009765625,0.68206787109375,0.50732421875,1.25,0.125,1.4375,0.490234375,-0.74951171875,0.4482421875
13,1597982314600824,-0.02685546875,-0.52618408203125,0.6822509765625,0.50689697265625,-2.0625,-0.0625,2.625,0.48876953125,-0.76611328125,0.455078125
14,1597982314624815,-0.02740478515625,-0.5262451171875,0.68231201171875,0.5067138671875,-2.0,0.4375,1.75,0.4873046875,-0.75732421875,0.45751953125
15,1597982314646811,-0.02777099609375,-0.526123046875,0.6824951171875,0.50653076171875,-0.5,0.6875,2.0,0.49609375,-0.75341796875,0.4599609375
16,1597982314660836,-0.02874755859375,-0.52587890625,0.68292236328125,0.50616455078125,-2.0625,1.5,3.5,0.4912109375,-0.80615234375,0.501953125
17,1597982314684837,-0.0294189453125,-0.52734375,0.6820068359375,0.50579833984375,-7.6875,-0.6875,0.8125,0.52880859375,-0.79345703125,0.4130859375
18,1597982314706818,-0.028076171875,-0.5247802734375,0.68426513671875,0.5054931640625,19.9375,1.25,5.875,0.49365234375,-0.7021484375,0.4384765625
19,1597982314727816,-0.0289306640625,-0.523681640625,0.68585205078125,0.50445556640625,6.625,2.5625,10.5,0.50048828125,-0.80029296875,0.47509765625
20,1597982314744808,-0.03155517578125,-0.52471923828125,0.6856689453125,0.50347900390625,-9.375,4.875,7.8125,0.52490234375,-0.89501953125,0.4736328125
21,1597982314766808,-0.0325927734375,-0.5235595703125,0.6859130859375,0.5042724609375,3.6875,12.25,3.875,0.4970703125,-0.6845703125,0.38623046875
22,1597982314787807,-0.03155517578125,-0.5169677734375,0.6907958984375,0.50445556640625,41.3125,12.0625,9.5625,0.44970703125,-0.75927734375,0.51220703125
23,1597982314804814,-0.03326416015625,-0.51629638671875,0.69390869140625,0.50079345703125,15.0625,-2.4375,20.4375,0.4599609375,-0.97998046875,0.44482421875
24,1597982314826811,-0.03192138671875,-0.51019287109375,0.7005615234375,0.497802734375,51.6875,3.625,26.3125,0.44384765625,-0.775390625,0.4091796875
25,1597982314847810,-0.027587890625,-0.4969482421875,0.7095947265625,0.49871826171875,87.4375,22.625,17.875,0.54443359375,-0.68359375,0.5556640625
26,1597982314864813,-0.0269775390625,-0.48724365234375,0.7152099609375,0.50030517578125,47.9375,27.9375,16.125,0.4990234375,-0.5986328125,0.6181640625
27,1597982314886806,-0.02984619140625,-0.4820556640625,0.7191162109375,0.49957275390625,15.375,19.0,23.5625,0.36669921875,-0.591796875,0.6044921875
28,1597982314907811,-0.0338134765625,-0.48284912109375,0.7197265625,0.49761962890625,-16.875,6.5,20.875,0.390625,-0.65087890625,0.54150390625
29,1597982314924812,-0.03668212890625,-0.4873046875,0.71856689453125,0.4947509765625,-33.375,-10.125,15.8125,0.39794921875,-0.66943359375,0.5361328125
30,1597982314946811,-0.03704833984375,-0.49139404296875,0.71844482421875,0.4908447265625,-23.75,-23.1875,16.5625,0.37158203125,-0.6171875,0.5126953125
31,1597982314967808,-0.03668212890625,-0.49884033203125,0.717529296875,0.48468017578125,-24.125,-37.9375,15.1875,0.33154296875,-0.75732421875,0.32763671875
32,1597982314983811,-0.03631591796875,-0.5048828125,0.71728515625,0.47882080078125,-18.5,-34.6875,14.875,0.36669921875,-0.84814453125,0.40478515625
33,1597982315006808,-0.03094482421875,-0.50250244140625,0.7200927734375,0.4774169921875,31.625,-18.75,1.25,0.580078125,-0.91064453125,0.6142578125
34,1597982315027807,-0.0274658203125,-0.49725341796875,0.72222900390625,0.47991943359375,32.6875,11.5,-2.3125,0.65966796875,-0.75,0.59765625
35,1597982315043812,-0.0277099609375,-0.49078369140625,0.72540283203125,0.48175048828125,37.0,26.3125,6.0,0.45361328125,-0.6865234375,0.44970703125
36,1597982315066806,-0.0343017578125,-0.49420166015625,0.723876953125,0.48016357421875,-39.125,12.1875,20.0625,0.3623046875,-0.6474609375,0.48291015625
37,1597982315087806,-0.032470703125,-0.49615478515625,0.72210693359375,0.48089599609375,-21.625,-10.8125,-2.875,0.578125,-0.64501953125,0.69140625
38,1597982315103806,-0.03692626953125,-0.50146484375,0.72137451171875,0.4761962890625,-27.375,-3.5625,29.375,0.490234375,-0.869140625,0.3837890625
39,1597982315126809,-0.0374755859375,-0.49871826171875,0.72406005859375,0.4749755859375,16.4375,0.625,7.9375,0.263671875,-0.70458984375,0.47900390625
40,1597982315149808,-0.03717041015625,-0.50140380859375,0.72198486328125,0.47528076171875,-16.125,-8.125,-9.625,0.3720703125,-0.71337890625,0.46630859375
41,1597982315163809,-0.036865234375,-0.50469970703125,0.71868896484375,0.476806640625,-22.5625,-1.375,-10.375,0.53515625,-0.73388671875,0.4814453125
42,1597982315186810,-0.03924560546875,-0.50848388671875,0.71563720703125,0.4771728515625,-30.8125,-0.5625,-6.25,0.41015625,-0.81640625,0.50732421875
43,1597982315209811,-0.04266357421875,-0.5137939453125,0.71221923828125,0.476318359375,-36.125,-1.625,-1.4375,0.4111328125,-0.87841796875,0.43408203125
44,1597982315223807,-0.04290771484375,-0.5137939453125,0.712646484375,0.47564697265625,3.125,-0.625,3.0625,0.46484375,-0.89306640625,0.49169921875
45,1597982315246810,-0.0428466796875,-0.51165771484375,0.714111328125,0.4757080078125,14.375,5.6875,3.375,0.43994140625,-0.822265625,0.4814453125
46,1597982315269819,-0.043212890625,-0.50921630859375,0.71539306640625,0.4764404296875,12.0625,8.0,-0.1875,0.3837890625,-0.77001953125,0.4931640625
47,1597982315283810,-0.0435791015625,-0.5087890625,0.71533203125,0.4769287109375,0.5625,4.0,-1.3125,0.40087890625,-0.74560546875,0.46484375
48,1597982315306808,-0.04400634765625,-0.50927734375,0.7152099609375,0.47662353515625,-2.875,-1.25,0.75,0.41162109375,-0.79638671875,0.4833984375
49,1597982315329823,-0.0438232421875,-0.5089111328125,0.715576171875,0.4764404296875,2.0625,-0.625,1.0,0.43408203125,-0.796875,0.50341796875
50,1597982315343811,-0.0435791015625,-0.50823974609375,0.71600341796875,0.4765625,4.3125,1.25,1.3125,0.4365234375,-0.763671875,0.48681640625
51,1597982315366894,-0.0440673828125,-0.50830078125,0.716064453125,0.476318359375,-1.9375,0.6875,2.1875,0.4091796875,-0.75146484375,0.4775390625
52,1597982315388901,-0.04522705078125,-0.5098876953125,0.71533203125,0.4755859375,-10.9375,-1.8125,2.4375,0.40966796875,-0.8076171875,0.47607421875
53,1597982315403969,-0.04522705078125,-0.5098876953125,0.71533203125,0.4755859375,0.0,0.4375,0.4375,0.43798828125,-0.814453125,0.48388671875
54,1597982315426960,-0.04498291015625,-0.5086669921875,0.716064453125,0.47589111328125,7.1875,3.0,0.6875,0.427734375,-0.77294921875,0.4912109375
55,1597982315448960,-0.04510498046875,-0.50799560546875,0.7164306640625,0.47607421875,3.5625,2.125,0.0,0.40869140625,-0.77587890625,0.484375
56,1597982315463970,-0.0450439453125,-0.5079345703125,0.7164306640625,0.47607421875,0.5625,0.875,-0.8125,0.43408203125,-0.775390625,0.4951171875
57,1597982315486968,-0.04510498046875,-0.50775146484375,0.716552734375,0.47607421875,1.0625,1.1875,1.625,0.4384765625,-0.77490234375,0.48486328125
58,1597982315509059,-0.0457763671875,-0.50811767578125,0.716552734375,0.4757080078125,-3.375,0.625,3.0625,0.41796875,-0.78564453125,0.48388671875
59,1597982315530069,-0.04620361328125,-0.50830078125,0.71661376953125,0.47528076171875,-1.5,-0.625,2.0,0.4169921875,-0.8076171875,0.49169921875
60,1597982315547056,-0.04608154296875,-0.50799560546875,0.717041015625,0.47509765625,3.75,-0.0625,1.3125,0.421875,-0.791015625,0.47509765625
61,1597982315569059,-0.0460205078125,-0.5078125,0.71722412109375,0.47491455078125,1.4375,-0.75,0.375,0.41650390625,-0.8017578125,0.4931640625
62,1597982315590149,-0.04595947265625,-0.5074462890625,0.7174072265625,0.47503662109375,1.25,1.0,0.375,0.421875,-0.7646484375,0.494140625
63,1597982315607144,-0.04638671875,-0.50726318359375,0.717529296875,0.4749755859375,-0.875,1.625,2.0,0.41552734375,-0.7626953125,0.48828125
64,1597982315629141,-0.04705810546875,-0.50775146484375,0.71734619140625,0.4747314453125,-3.75,0.875,1.6875,0.41552734375,-0.798828125,0.48388671875
65,1597982315650150,-0.0474853515625,-0.50775146484375,0.7174072265625,0.47454833984375,-1.0,0.625,1.625,0.41455078125,-0.7939453125,0.4892578125
66,1597982315668142,-0.04742431640625,-0.507080078125,0.71795654296875,0.47442626953125,4.5625,1.25,1.9375,0.4130859375,-0.78125,0.48193359375
67,1597982315689144,-0.047607421875,-0.5068359375,0.71826171875,0.47430419921875,1.1875,0.5625,1.3125,0.41064453125,-0.78076171875,0.490234375
68,1597982315710151,-0.047607421875,-0.5068359375,0.71820068359375,0.47430419921875,-0.875,-0.9375,0.3125,0.419921875,-0.7978515625,0.48681640625
69,1597982315727144,-0.0472412109375,-0.50640869140625,0.71844482421875,0.47442626953125,4.1875,0.5625,-0.8125,0.42431640625,-0.7919921875,0.4775390625
70,1597982315749143,-0.04693603515625,-0.50567626953125,0.7188720703125,0.474609375,4.8125,1.125,-0.1875,0.419921875,-0.78173828125,0.4951171875
71,1597982315770147,-0.04681396484375,-0.505126953125,0.71917724609375,0.47479248046875,3.4375,1.5625,0.5625,0.42333984375,-0.7724609375,0.48828125
72,1597982315787142,-0.0469970703125,-0.50469970703125,0.71942138671875,0.47479248046875,1.875,1.625,0.875,0.41357421875,-0.78515625,0.49609375
73,1597982315809141,-0.04693603515625,-0.50433349609375,0.71978759765625,0.47467041015625,2.75,0.25,1.5,0.4189453125,-0.7802734375,0.4921875
74,1597982315830150,-0.04705810546875,-0.50421142578125,0.72003173828125,0.47442626953125,1.0,0.25,1.875,0.41748046875,-0.78662109375,0.4892578125
75,1597982315847149,-0.04705810546875,-0.50360107421875,0.720458984375,0.47442626953125,3.5625,1.3125,1.5625,0.4169921875,-0.783203125,0.4990234375
76,1597982315869140,-0.047119140625,-0.5029296875,0.7208251953125,0.47454833984375,2.9375,1.875,1.0,0.40771484375,-0.75927734375,0.498046875
77,1597982315890151,-0.0474853515625,-0.50286865234375,0.72076416015625,0.474609375,-2.125,2.0,1.25,0.4189453125,-0.76513671875,0.50830078125
78,1597982315907208,-0.04815673828125,-0.5030517578125,0.72064208984375,0.474609375,-2.5625,2.625,1.6875,0.42333984375,-0.7919921875,0.494140625
79,1597982315929198,-0.04876708984375,-0.50286865234375,0.720703125,0.474609375,-0.5625,3.0,2.4375,0.42138671875,-0.787109375,0.49755859375
80,1597982315950209,-0.0491943359375,-0.5025634765625,0.720947265625,0.474609375,-0.1875,2.3125,2.125,0.41162109375,-0.77734375,0.505859375
81,1597982315967206,-0.0498046875,-0.50250244140625,0.72100830078125,0.4744873046875,-1.875,1.8125,2.4375,0.40966796875,-0.77978515625,0.51025390625
82,1597982315989199,-0.05029296875,-0.50238037109375,0.7210693359375,0.47442626953125,-0.5,2.3125,1.75,0.4052734375,-0.77978515625,0.4873046875
83,1597982316010281,-0.05059814453125,-0.5023193359375,0.7210693359375,0.4744873046875,-0.5,1.5625,0.4375,0.40771484375,-0.7802734375,0.498046875
84,1597982316026282,-0.05072021484375,-0.50238037109375,0.720947265625,0.47454833984375,-1.4375,0.4375,0.125,0.4033203125,-0.76611328125,0.490234375
85,1597982316049273,-0.05108642578125,-0.50299072265625,0.720703125,0.474365234375,-4.125,-0.1875,1.375,0.41455078125,-0.779296875,0.4892578125
86,1597982316070281,-0.051513671875,-0.503173828125,0.7205810546875,0.4742431640625,-1.9375,0.8125,1.0625,0.4130859375,-0.79931640625,0.49853515625
87,1597982316087283,-0.0517578125,-0.50323486328125,0.720458984375,0.47430419921875,-1.0625,1.5,0.3125,0.41552734375,-0.79296875,0.49365234375
88,1597982316109275,-0.05194091796875,-0.50311279296875,0.720458984375,0.4744873046875,-0.1875,1.5625,-0.25,0.40234375,-0.77734375,0.49072265625
89,1597982316132275,-0.05224609375,-0.5029296875,0.72039794921875,0.474609375,0.125,2.125,0.25,0.4111328125,-0.78564453125,0.4912109375
90,1597982316147281,-0.05267333984375,-0.5030517578125,0.72027587890625,0.4747314453125,-2.6875,1.25,0.1875,0.39990234375,-0.78271484375,0.501953125
91,1597982316169271,-0.0531005859375,-0.50347900390625,0.71990966796875,0.4747314453125,-3.75,0.8125,0.3125,0.4130859375,-0.79052734375,0.494140625
92,1597982316192281,-0.05340576171875,-0.50341796875,0.71990966796875,0.4747314453125,-0.375,1.75,0.875,0.40869140625,-0.79443359375,0.4921875
93,1597982316207276,-0.05377197265625,-0.50323486328125,0.7200927734375,0.474609375,0.0,1.125,1.5625,0.396484375,-0.78076171875,0.49951171875
94,1597982316229278,-0.05419921875,-0.50335693359375,0.72003173828125,0.4744873046875,-2.6875,0.625,1.5625,0.40673828125,-0.7861328125,0.50537109375
95,1597982316252272,-0.0548095703125,-0.50347900390625,0.719970703125,0.47442626953125,-2.5625,2.0625,2.25,0.40576171875,-0.78515625,0.49267578125
96,1597982316266275,-0.0555419921875,-0.5032958984375,0.7200927734375,0.474365234375,-1.125,3.0625,2.125,0.39794921875,-0.798828125,0.50634765625
97,1597982316289274,-0.05596923828125,-0.5030517578125,0.72015380859375,0.47442626953125,-0.6875,2.25,1.125,0.39453125,-0.77001953125,0.4931640625
98,1597982316312281,-0.0567626953125,-0.50360107421875,0.71978759765625,0.474365234375,-4.6875,1.9375,0.875,0.4052734375,-0.80615234375,0.484375
99,1597982316326272,-0.05718994140625,-0.50347900390625,0.71966552734375,0.474609375,-1.0625,2.75,0.4375,0.4013671875,-0.78369140625,0.494140625
100,1597982316349276,-0.0574951171875,-0.5032958984375,0.7196044921875,0.474853515625,-0.5625,2.5,0.0,0.3984375,-0.77880859375,0.490234375
