index,timestamp,orientation_x,orientation_y,orientation_z,orientation_w,gyroscope_x,gyroscope_y,gyroscope_z,acceleration_x,acceleration_y,acceleration_z
0,1597982285477596,0.02301025390625,-0.52203369140625,0.694091796875,0.4951171875,-30.8125,-16.1875,-0.9375,0.6005859375,-0.64990234375,0.376953125
1,1597982285492601,0.02337646484375,-0.5262451171875,0.69140625,0.494384765625,-20.75,-10.875,-0.75,0.65185546875,-0.7177734375,0.39599609375
2,1597982285514686,0.0234375,-0.52838134765625,0.6900634765625,0.49407958984375,-8.875,-2.8125,0.0625,0.642578125,-0.75390625,0.39892578125
3,1597982285536688,0.02349853515625,-0.5291748046875,0.68963623046875,0.4937744140625,-1.875,-1.0,1.0,0.6005859375,-0.7314453125,0.40576171875
4,1597982285559689,0.02349853515625,-0.52996826171875,0.689208984375,0.49346923828125,-3.0625,-1.625,1.0,0.583984375,-0.724609375,0.419921875
5,1597982285574774,0.02313232421875,-0.53070068359375,0.68914794921875,0.4927978515625,-2.6875,-2.375,2.3125,0.5732421875,-0.76416015625,0.44287109375
6,1597982285596774,0.02276611328125,-0.531005859375,0.68951416015625,0.49188232421875,0.8125,-2.1875,3.5625,0.56591796875,-0.78466796875,0.44287109375
7,1597982285611775,0.0225830078125,-0.53033447265625,0.69061279296875,0.49114990234375,6.625,0.1875,4.375,0.54833984375,-0.75732421875,0.439453125
8,1597982285634776,0.02239990234375,-0.5289306640625,0.692138671875,0.4906005859375,9.6875,1.6875,5.0625,0.52587890625,-0.7265625,0.45458984375
9,1597982285656773,0.0223388671875,-0.5277099609375,0.69329833984375,0.49017333984375,7.125,0.8125,3.375,0.509765625,-0.6982421875,0.455078125
10,1597982285671774,0.022705078125,-0.52667236328125,0.69427490234375,0.489990234375,6.4375,-0.875,1.3125,0.5146484375,-0.6904296875,0.4638671875
11,1597982285694774,0.02337646484375,-0.52587890625,0.69482421875,0.489990234375,5.0,-1.625,-0.625,0.533203125,-0.6943359375,0.46826171875
12,1597982285716774,0.024169921875,-0.52532958984375,0.695068359375,0.49017333984375,3.8125,-1.625,-2.125,0.54931640625,-0.6953125,0.4677734375
13,1597982285731767,0.02471923828125,-0.52508544921875,0.695068359375,0.490478515625,0.6875,-1.5625,-2.125,0.56201171875,-0.70166015625,0.4775390625
14,1597982285754774,0.0250244140625,-0.52532958984375,0.69464111328125,0.49072265625,-2.5625,-1.25,-1.25,0.57958984375,-0.69921875,0.46630859375
15,1597982285776774,0.02496337890625,-0.52593994140625,0.69415283203125,0.49078369140625,-4.6875,-0.6875,0.1875,0.5869140625,-0.70703125,0.45703125
16,1597982285791774,0.02447509765625,-0.5264892578125,0.6937255859375,0.49078369140625,-5.125,0.875,1.5625,0.5791015625,-0.71142578125,0.4541015625
17,1597982285814765,0.02374267578125,-0.5272216796875,0.6932373046875,0.49072265625,-6.375,1.5,2.25,0.576171875,-0.71533203125,0.44384765625
18,1597982285836774,0.02276611328125,-0.52813720703125,0.69256591796875,0.49078369140625,-7.75,2.375,1.75,0.56787109375,-0.712890625,0.4296875
19,1597982285851775,0.0216064453125,-0.52911376953125,0.69183349609375,0.4908447265625,-9.0,2.5625,1.8125,0.56494140625,-0.7197265625,0.431640625
20,1597982285874769,0.02056884765625,-0.52996826171875,0.69110107421875,0.490966796875,-7.9375,2.75,0.9375,0.55908203125,-0.7177734375,0.42578125
21,1597982285896768,0.01922607421875,-0.53076171875,0.6904296875,0.49114990234375,-8.4375,4.3125,2.0625,0.5703125,-0.7314453125,0.43896484375
22,1597982285911768,0.0172119140625,-0.5313720703125,0.69000244140625,0.49114990234375,-10.1875,5.3125,4.875,0.5625,-0.7421875,0.46630859375
23,1597982285934765,0.01470947265625,-0.5328369140625,0.68939208984375,0.49053955078125,-16.125,2.5,7.5,0.55029296875,-0.7529296875,0.47509765625
24,1597982285956776,0.009765625,-0.53704833984375,0.687255859375,0.48907470703125,-36.5625,2.5625,14.375,0.5673828125,-0.7890625,0.453125
25,1597982285971769,0.00244140625,-0.54193115234375,0.684814453125,0.48712158203125,-45.4375,10.8125,24.5,0.62255859375,-0.84228515625,0.4345703125
26,1597982285994774,-0.0067138671875,-0.54486083984375,0.6846923828125,0.4840087890625,-35.5,18.625,38.9375,0.587890625,-0.89208984375,0.44775390625
27,1597982286016860,-0.0155029296875,-0.5435791015625,0.68878173828125,0.4793701171875,-5.4375,20.6875,50.625,0.494140625,-0.93896484375,0.47509765625
28,1597982286031865,-0.0223388671875,-0.53717041015625,0.69647216796875,0.4752197265625,27.75,24.375,49.3125,0.39892578125,-0.92919921875,0.55224609375
29,1597982286054968,-0.0289306640625,-0.53082275390625,0.70306396484375,0.47222900390625,28.6875,31.125,45.375,0.353515625,-0.7705078125,0.40380859375
30,1597982286076948,-0.03582763671875,-0.52490234375,0.70867919921875,0.47003173828125,23.5625,33.75,39.9375,0.33251953125,-0.77294921875,0.41455078125
31,1597982286091950,-0.04150390625,-0.51885986328125,0.71099853515625,0.47271728515625,4.625,45.5,23.1875,0.41845703125,-0.44873046875,0.486328125
32,1597982286114943,-0.0465087890625,-0.51214599609375,0.71319580078125,0.476318359375,15.3125,42.3125,1.75,0.3037109375,-0.75390625,0.5654296875
33,1597982286136948,-0.05242919921875,-0.51287841796875,0.7108154296875,0.47845458984375,-22.625,23.6875,-9.25,0.1728515625,-0.71240234375,0.3701171875
34,1597982286151948,-0.052734375,-0.50994873046875,0.71148681640625,0.4805908203125,12.1875,11.5625,-10.125,0.32177734375,-0.76708984375,0.49658203125
35,1597982286175039,-0.047607421875,-0.50927734375,0.711669921875,0.48150634765625,17.625,-10.4375,-8.375,0.59130859375,-0.75927734375,0.46630859375
36,1597982286197038,-0.044921875,-0.50634765625,0.7132568359375,0.48248291015625,23.0625,4.1875,1.875,0.57861328125,-0.76123046875,0.50439453125
37,1597982286215030,-0.03887939453125,-0.5035400390625,0.71533203125,0.48284912109375,40.9375,-6.4375,-2.3125,0.6162109375,-0.748046875,0.35693359375
38,1597982286235039,-0.035888671875,-0.5003662109375,0.7176513671875,0.48297119140625,26.8125,-0.3125,3.6875,0.51123046875,-0.70068359375,0.486328125
39,1597982286257038,-0.03369140625,-0.50006103515625,0.7183837890625,0.482421875,13.8125,-6.5,-0.4375,0.48291015625,-0.79345703125,0.4365234375
40,1597982286272040,-0.0299072265625,-0.49688720703125,0.72076416015625,0.48236083984375,31.125,-1.3125,4.875,0.5625,-0.68505859375,0.44921875
41,1597982286295039,-0.0296630859375,-0.49755859375,0.72100830078125,0.4813232421875,-2.1875,-4.375,7.1875,0.45263671875,-0.6787109375,0.466796875
42,1597982286317038,-0.02972412109375,-0.4998779296875,0.7203369140625,0.47991943359375,-7.75,-8.375,2.4375,0.43212890625,-0.7880859375,0.44482421875
43,1597982286334032,-0.0281982421875,-0.5009765625,0.72027587890625,0.47894287109375,1.375,-9.5625,0.9375,0.482421875,-0.76416015625,0.46630859375
44,1597982286355032,-0.0267333984375,-0.50177001953125,0.7205810546875,0.47772216796875,3.3125,-11.0,1.0625,0.43798828125,-0.75927734375,0.46630859375
45,1597982286377038,-0.0247802734375,-0.50164794921875,0.72100830078125,0.47735595703125,7.0,-8.375,-1.9375,0.45654296875,-0.74169921875,0.48974609375
46,1597982286393038,-0.023681640625,-0.501953125,0.72113037109375,0.4769287109375,0.75,-6.5,0.375,0.462890625,-0.72509765625,0.5087890625
47,1597982286414038,-0.023681640625,-0.50311279296875,0.720703125,0.476318359375,-7.625,-5.8125,0.6875,0.4287109375,-0.73974609375,0.5107421875
48,1597982286437048,-0.02392578125,-0.50421142578125,0.72015380859375,0.4759521484375,-7.5,-3.75,0.1875,0.453125,-0.7666015625,0.51611328125
49,1597982286453039,-0.024169921875,-0.50506591796875,0.719482421875,0.47607421875,-6.375,-1.8125,-2.625,0.44970703125,-0.79150390625,0.515625
50,1597982286474038,-0.02362060546875,-0.50469970703125,0.71966552734375,0.4761962890625,3.5,-1.25,-1.875,0.4560546875,-0.7822265625,0.5166015625
51,1597982286497038,-0.02301025390625,-0.5042724609375,0.719970703125,0.47625732421875,2.3125,-2.5,-1.5625,0.4501953125,-0.75634765625,0.529296875
52,1597982286513030,-0.02264404296875,-0.504150390625,0.719970703125,0.476318359375,-0.0625,-1.375,-0.625,0.45556640625,-0.74267578125,0.51904296875
53,1597982286535038,-0.0235595703125,-0.50482177734375,0.7196044921875,0.47613525390625,-6.75,0.5,1.6875,0.453125,-0.78076171875,0.515625
54,1597982286557120,-0.024169921875,-0.50506591796875,0.7193603515625,0.47625732421875,-4.4375,1.75,0.0,0.44482421875,-0.7607421875,0.51171875
55,1597982286574111,-0.02471923828125,-0.5045166015625,0.719482421875,0.4765625,1.6875,4.125,0.1875,0.45166015625,-0.7802734375,0.5029296875
56,1597982286595113,-0.025390625,-0.50396728515625,0.7197265625,0.476806640625,0.0625,4.6875,2.0625,0.44873046875,-0.74755859375,0.50244140625
57,1597982286617120,-0.02630615234375,-0.50439453125,0.71929931640625,0.4769287109375,-4.5625,3.375,0.9375,0.45654296875,-0.77197265625,0.4912109375
58,1597982286634113,-0.02703857421875,-0.504150390625,0.7193603515625,0.47705078125,-1.0625,3.9375,1.875,0.45947265625,-0.7763671875,0.51171875
59,1597982286655113,-0.0279541015625,-0.50390625,0.7196044921875,0.4769287109375,0.25,4.0,2.5,0.43701171875,-0.78564453125,0.48681640625
60,1597982286677119,-0.0279541015625,-0.50274658203125,0.72027587890625,0.47711181640625,6.0,2.6875,0.6875,0.42236328125,-0.74609375,0.50244140625
61,1597982286695114,-0.0274658203125,-0.50115966796875,0.720703125,0.47808837890625,5.9375,4.125,-2.4375,0.4443359375,-0.7021484375,0.52978515625
62,1597982286719112,-0.028076171875,-0.50225830078125,0.7198486328125,0.478271484375,-8.375,0.0,-1.8125,0.42919921875,-0.7451171875,0.48583984375
63,1597982286737122,-0.0283203125,-0.50274658203125,0.71929931640625,0.47857666015625,-4.625,1.0625,-1.3125,0.466796875,-0.763671875,0.50830078125
64,1597982286755111,-0.0284423828125,-0.50274658203125,0.71917724609375,0.47869873046875,-0.75,1.0625,-0.375,0.4521484375,-0.7626953125,0.4990234375
65,1597982286775118,-0.02825927734375,-0.50213623046875,0.71954345703125,0.47882080078125,3.875,0.5,-0.6875,0.42529296875,-0.7568359375,0.5
66,1597982286797119,-0.02789306640625,-0.50164794921875,0.71966552734375,0.4791259765625,1.8125,0.125,-1.5625,0.431640625,-0.7197265625,0.5068359375
67,1597982286815112,-0.02850341796875,-0.50311279296875,0.71875,0.47894287109375,-9.8125,-2.375,-1.0,0.431640625,-0.75927734375,0.49072265625
68,1597982286834119,-0.029052734375,-0.5042724609375,0.718017578125,0.47882080078125,-8.125,-1.0625,-0.375,0.453125,-0.7861328125,0.50146484375
69,1597982286857119,-0.02911376953125,-0.50457763671875,0.71795654296875,0.47857666015625,-0.75,-1.3125,-0.1875,0.44921875,-0.7998046875,0.4990234375
70,1597982286875122,-0.02874755859375,-0.50372314453125,0.71856689453125,0.47857666015625,5.9375,0.1875,0.25,0.4365234375,-0.76318359375,0.50341796875
71,1597982286895111,-0.02874755859375,-0.5035400390625,0.71856689453125,0.47882080078125,0.5,1.125,-0.75,0.443359375,-0.7490234375,0.4931640625
72,1597982286917119,-0.0289306640625,-0.5032958984375,0.7186279296875,0.47894287109375,-0.375,1.0,-0.25,0.43896484375,-0.755859375,0.51708984375
73,1597982286935112,-0.029052734375,-0.503662109375,0.7186279296875,0.478515625,-1.875,-2.4375,1.5625,0.43408203125,-0.76708984375,0.5
74,1597982286954119,-0.0291748046875,-0.50384521484375,0.71875,0.47821044921875,-0.9375,-1.5,0.9375,0.43505859375,-0.7666015625,0.501953125
75,1597982286977119,-0.02947998046875,-0.504150390625,0.7186279296875,0.47802734375,-1.6875,0.1875,1.125,0.44580078125,-0.76904296875,0.48876953125
76,1597982286995111,-0.02972412109375,-0.50445556640625,0.71844482421875,0.4779052734375,-1.8125,-0.125,-0.1875,0.44189453125,-0.77978515625,0.4912109375
77,1597982287014120,-0.0296630859375,-0.5040283203125,0.71868896484375,0.47802734375,2.375,1.3125,0.0,0.4453125,-0.76025390625,0.4951171875
78,1597982287037120,-0.02984619140625,-0.5040283203125,0.71875,0.47796630859375,0.3125,0.8125,1.125,0.44677734375,-0.767578125,0.48828125
79,1597982287055114,-0.02984619140625,-0.50396728515625,0.71875,0.47796630859375,-0.4375,0.5625,0.9375,0.443359375,-0.75732421875,0.51220703125
80,1597982287082113,-0.02996826171875,-0.5037841796875,0.71875,0.4781494140625,-0.5,1.375,0.4375,0.44970703125,-0.7529296875,0.5078125
81,1597982287097119,-0.02996826171875,-0.5037841796875,0.71881103515625,0.4781494140625,0.1875,0.6875,-0.3125,0.43701171875,-0.751953125,0.50830078125
82,1597982287115113,-0.0301513671875,-0.5040283203125,0.7186279296875,0.4781494140625,-2.6875,-0.1875,-0.0625,0.43896484375,-0.7568359375,0.5029296875
83,1597982287135111,-0.03033447265625,-0.50445556640625,0.71826171875,0.47821044921875,-3.125,-0.125,-0.6875,0.45263671875,-0.77294921875,0.49853515625
84,1597982287157119,-0.03045654296875,-0.50469970703125,0.71795654296875,0.4783935546875,-2.5625,0.375,-0.625,0.4521484375,-0.75927734375,0.49853515625
85,1597982287175114,-0.03045654296875,-0.50469970703125,0.71783447265625,0.47857666015625,-0.75,1.0625,-0.75,0.45751953125,-0.76513671875,0.49755859375
86,1597982287194119,-0.03076171875,-0.50439453125,0.71783447265625,0.4788818359375,0.125,2.6875,-0.1875,0.447265625,-0.76513671875,0.50244140625
87,1597982287217112,-0.03076171875,-0.50439453125,0.71783447265625,0.4788818359375,-0.125,0.875,0.75,0.43310546875,-0.7548828125,0.505859375
88,1597982287235120,-0.0311279296875,-0.5048828125,0.717529296875,0.47882080078125,-4.1875,-0.5625,0.125,0.4375,-0.7626953125,0.4970703125
89,1597982287255118,-0.03106689453125,-0.50494384765625,0.71734619140625,0.47900390625,-0.875,0.0625,-1.8125,0.4443359375,-0.77197265625,0.505859375
90,1597982287277113,-0.03106689453125,-0.50494384765625,0.71734619140625,0.47900390625,-0.25,0.1875,-0.8125,0.45263671875,-0.7578125,0.4912109375
91,1597982287295114,-0.03131103515625,-0.505126953125,0.71722412109375,0.47894287109375,-1.875,0.375,0.8125,0.4482421875,-0.76513671875,0.49365234375
92,1597982287316113,-0.0316162109375,-0.5048828125,0.71734619140625,0.47900390625,0.25,1.8125,1.125,0.4453125,-0.7666015625,0.50146484375
93,1597982287337210,-0.03204345703125,-0.50494384765625,0.71722412109375,0.47906494140625,-2.0,1.375,-0.125,0.43408203125,-0.77001953125,0.49853515625
94,1597982287355203,-0.031982421875,-0.50482177734375,0.7171630859375,0.4793701171875,0.25,0.4375,-1.875,0.43359375,-0.76025390625,0.49853515625
95,1597982287376207,-0.03173828125,-0.50457763671875,0.71728515625,0.47943115234375,1.75,-0.5625,-1.3125,0.4345703125,-0.7646484375,0.49560546875
96,1597982287397278,-0.03173828125,-0.50457763671875,0.71728515625,0.4794921875,-0.5,-0.625,-0.6875,0.44580078125,-0.75244140625,0.49609375
97,1597982287415280,-0.031982421875,-0.50518798828125,0.71697998046875,0.47918701171875,-3.6875,-1.125,0.625,0.4453125,-0.77978515625,0.49365234375
98,1597982287436281,-0.03204345703125,-0.50518798828125,0.71697998046875,0.47918701171875,-0.25,-0.0625,0.9375,0.4423828125,-0.77880859375,0.49853515625
99,1597982287457371,-0.03192138671875,-0.504638671875,0.71759033203125,0.4788818359375,4.1875,0.0625,2.75,0.44287109375,-0.76416015625,0.4970703125
100,1597982287475372,-0.03204345703125,-0.50408935546875,0.7181396484375,0.4786376953125,3.4375,0.6875,2.625,0.435546875,-0.76806640625,0.49853515625
101,1597982287496371,-0.03240966796875,-0.50384521484375,0.71844482421875,0.47845458984375,0.4375,0.9375,1.9375,0.42822265625,-0.765625,0.50244140625
