index,timestamp,orientation_x,orientation_y,orientation_z,orientation_w,gyroscope_x,gyroscope_y,gyroscope_z,acceleration_x,acceleration_y,acceleration_z
0,1597982316971700,-0.06134033203125,-0.51202392578125,0.70416259765625,0.488037109375,-6.625,0.125,-2.6875,0.419921875,-0.82421875,0.48388671875
1,1597982316992710,-0.0623779296875,-0.5125732421875,0.7032470703125,0.4886474609375,-8.5,4.0625,-2.5625,0.42626953125,-0.8212890625,0.5029296875
2,1597982317008796,-0.0638427734375,-0.5133056640625,0.70220947265625,0.48919677734375,-8.6875,4.5625,-4.125,0.419921875,-0.900390625,0.51318359375
3,1597982317031874,-0.0643310546875,-0.5137939453125,0.70098876953125,0.4903564453125,-2.875,7.3125,-5.125,0.4580078125,-0.81201171875,0.41357421875
4,1597982317053874,-0.06158447265625,-0.5086669921875,0.704345703125,0.4912109375,33.25,2.625,0.5,0.3828125,-0.693359375,0.52001953125
5,1597982317068876,-0.0611572265625,-0.50634765625,0.70574951171875,0.49169921875,8.8125,2.5,1.875,0.36962890625,-0.68798828125,0.53271484375
6,1597982317091878,-0.063720703125,-0.50958251953125,0.70367431640625,0.49102783203125,-27.5,-2.3125,-0.3125,0.32861328125,-0.73876953125,0.46337890625
7,1597982317114252,-0.06622314453125,-0.51361083984375,0.70086669921875,0.490478515625,-31.1875,-2.875,-2.0625,0.39599609375,-0.837890625,0.482421875
8,1597982317129249,-0.06640625,-0.51544189453125,0.69976806640625,0.4901123046875,-11.375,-6.0,-3.1875,0.40966796875,-0.8251953125,0.486328125
9,1597982317152260,-0.0657958984375,-0.51708984375,0.6990966796875,0.4893798828125,-5.0625,-9.0625,-3.3125,0.40283203125,-0.828125,0.443359375
10,1597982317175251,-0.06475830078125,-0.51812744140625,0.6983642578125,0.48944091796875,-2.375,-6.1875,-5.625,0.4208984375,-0.79443359375,0.4375
11,1597982317188260,-0.06365966796875,-0.51873779296875,0.6982421875,0.48919677734375,1.5625,-6.125,-3.125,0.427734375,-0.8154296875,0.44384765625
12,1597982317212253,-0.06268310546875,-0.51910400390625,0.69830322265625,0.48876953125,2.25,-5.25,-0.6875,0.44091796875,-0.81103515625,0.4462890625
13,1597982317234252,-0.0621337890625,-0.519287109375,0.69842529296875,0.48846435546875,1.6875,-3.375,-0.3125,0.43212890625,-0.8134765625,0.45947265625
14,1597982317248274,-0.062255859375,-0.51947021484375,0.69854736328125,0.48822021484375,-0.25,-1.1875,0.625,0.435546875,-0.84716796875,0.4765625
15,1597982317272252,-0.0616455078125,-0.51873779296875,0.69915771484375,0.48809814453125,6.1875,-1.625,0.3125,0.4169921875,-0.79296875,0.4609375
16,1597982317294253,-0.0609130859375,-0.5177001953125,0.7003173828125,0.48760986328125,8.75,-2.0,3.6875,0.42919921875,-0.79638671875,0.4765625
17,1597982317309261,-0.060791015625,-0.5169677734375,0.70123291015625,0.48712158203125,4.3125,-0.75,4.5625,0.42138671875,-0.78271484375,0.48046875
18,1597982317332250,-0.06146240234375,-0.51715087890625,0.70159912109375,0.486328125,-1.8125,-0.625,5.5625,0.421875,-0.81201171875,0.470703125
19,1597982317354252,-0.061767578125,-0.51702880859375,0.70208740234375,0.4857177734375,0.375,-0.9375,4.375,0.41650390625,-0.79443359375,0.47705078125
20,1597982317368250,-0.06195068359375,-0.51751708984375,0.70233154296875,0.48480224609375,-0.875,-3.125,3.875,0.4169921875,-0.81787109375,0.451171875
21,1597982317392253,-0.0625,-0.51702880859375,0.70318603515625,0.4840087890625,4.5,1.6875,7.5,0.4365234375,-0.83740234375,0.4501953125
22,1597982317414256,-0.0623779296875,-0.51629638671875,0.7039794921875,0.48370361328125,5.125,0.6875,4.0625,0.43408203125,-0.8037109375,0.47216796875
23,1597982317429253,-0.06317138671875,-0.5155029296875,0.7042236328125,0.4840087890625,3.75,7.625,2.6875,0.4384765625,-0.81494140625,0.44287109375
24,1597982317452261,-0.06182861328125,-0.51190185546875,0.706787109375,0.4842529296875,27.4375,3.0625,-0.25,0.369140625,-0.8359375,0.47021484375
25,1597982317482252,-0.0606689453125,-0.509765625,0.70843505859375,0.48431396484375,15.9375,0.1875,1.3125,0.41650390625,-0.8095703125,0.50341796875
26,1597982317495258,-0.05718994140625,-0.504638671875,0.712646484375,0.48394775390625,40.625,-4.6875,2.6875,0.376953125,-0.7939453125,0.53271484375
27,1597982317512259,-0.0545654296875,-0.49871826171875,0.71697998046875,0.4840087890625,45.9375,3.375,3.1875,0.36962890625,-0.806640625,0.48486328125
28,1597982317534249,-0.0528564453125,-0.49346923828125,0.719482421875,0.48577880859375,33.0625,10.9375,-4.4375,0.36865234375,-0.720703125,0.4970703125
29,1597982317555259,-0.04888916015625,-0.4853515625,0.72369384765625,0.48809814453125,54.0625,9.4375,-7.25,0.3564453125,-0.69287109375,0.53662109375
30,1597982317562259,-0.045654296875,-0.4813232421875,0.72540283203125,0.48992919921875,27.9375,2.1875,-8.5625,0.42138671875,-0.69140625,0.55517578125
31,1597982317577258,-0.04364013671875,-0.47967529296875,0.72515869140625,0.4920654296875,8.875,1.75,-12.625,0.4150390625,-0.68798828125,0.56689453125
32,1597982317600259,-0.04254150390625,-0.47906494140625,0.72509765625,0.4927978515625,2.375,-0.4375,-2.875,0.4462890625,-0.6875,0.5615234375
33,1597982317622261,-0.04193115234375,-0.48199462890625,0.72381591796875,0.49188232421875,-15.875,-11.875,0.75,0.43896484375,-0.6875,0.52783203125
34,1597982317637259,-0.0413818359375,-0.48516845703125,0.72235107421875,0.490966796875,-14.0,-9.25,1.3125,0.53369140625,-0.81201171875,0.53564453125
35,1597982317660341,-0.041748046875,-0.4866943359375,0.7222900390625,0.489501953125,-4.375,-4.25,7.625,0.482421875,-0.826171875,0.51513671875
36,1597982317677339,-0.04132080078125,-0.4854736328125,0.723876953125,0.4884033203125,12.1875,-1.125,7.375,0.416015625,-0.771484375,0.51025390625
37,1597982317697348,-0.04052734375,-0.48388671875,0.72528076171875,0.48797607421875,13.1875,0.375,4.5625,0.4326171875,-0.7470703125,0.52294921875
38,1597982317720338,-0.040771484375,-0.4837646484375,0.7257080078125,0.48748779296875,1.0,-0.1875,3.4375,0.40478515625,-0.74072265625,0.52197265625
39,1597982317742348,-0.0411376953125,-0.48358154296875,0.72607421875,0.48712158203125,-0.5625,-0.5625,2.6875,0.39306640625,-0.7470703125,0.55029296875
40,1597982317757348,-0.0418701171875,-0.4842529296875,0.725830078125,0.48675537109375,-5.75,-0.625,1.5,0.3896484375,-0.75048828125,0.53564453125
41,1597982317780338,-0.0421142578125,-0.48455810546875,0.72576904296875,0.4864501953125,-2.6875,-1.5,1.125,0.39990234375,-0.7431640625,0.537109375
42,1597982317797339,-0.04229736328125,-0.48492431640625,0.7254638671875,0.4864501953125,-4.75,-0.9375,-0.1875,0.4111328125,-0.73583984375,0.55126953125
43,1597982317817757,-0.0430908203125,-0.48590087890625,0.724853515625,0.4864501953125,-8.25,-0.0625,-0.5625,0.40380859375,-0.7626953125,0.54248046875
44,1597982317839811,-0.0435791015625,-0.48614501953125,0.724609375,0.4864501953125,-3.4375,0.6875,-0.125,0.40576171875,-0.7646484375,0.5390625
45,1597982317857902,-0.0438232421875,-0.4862060546875,0.72467041015625,0.486328125,-1.25,0.1875,0.875,0.40966796875,-0.76025390625,0.5400390625
46,1597982317876891,-0.04388427734375,-0.4862060546875,0.72467041015625,0.486328125,0.0,0.0,0.5,0.41845703125,-0.77978515625,0.541015625
47,1597982317899892,-0.0438232421875,-0.48577880859375,0.72491455078125,0.4864501953125,1.9375,1.375,0.875,0.42333984375,-0.75390625,0.5380859375
48,1597982317917986,-0.04425048828125,-0.48583984375,0.724853515625,0.48638916015625,-1.375,1.5625,1.1875,0.41748046875,-0.7685546875,0.533203125
49,1597982317936971,-0.0443115234375,-0.48577880859375,0.7252197265625,0.48583984375,-0.1875,-2.625,2.4375,0.39599609375,-0.75634765625,0.55078125
50,1597982317959976,-0.043701171875,-0.48760986328125,0.72503662109375,0.48443603515625,-5.75,-11.0,3.125,0.40576171875,-0.7451171875,0.4990234375
51,1597982317977977,-0.04345703125,-0.48931884765625,0.72442626953125,0.4835205078125,-7.6875,-7.125,1.8125,0.427734375,-0.755859375,0.505859375
52,1597982317996976,-0.043701171875,-0.4898681640625,0.7242431640625,0.48333740234375,-3.25,-0.5,1.25,0.435546875,-0.77734375,0.5283203125
53,1597982318019978,-0.0443115234375,-0.489501953125,0.724365234375,0.48333740234375,0.125,3.375,2.125,0.41796875,-0.77001953125,0.5283203125
54,1597982318037977,-0.04498291015625,-0.4888916015625,0.72467041015625,0.48345947265625,1.5625,4.3125,1.5,0.39892578125,-0.76513671875,0.5244140625
55,1597982318057050,-0.04541015625,-0.48895263671875,0.72479248046875,0.48321533203125,-0.8125,0.5,1.6875,0.39501953125,-0.7685546875,0.52001953125
56,1597982318080056,-0.045166015625,-0.489013671875,0.7249755859375,0.48291015625,1.0625,-1.9375,1.125,0.41650390625,-0.75830078125,0.51416015625
57,1597982318098060,-0.045166015625,-0.48907470703125,0.724853515625,0.4830322265625,-1.625,0.5625,0.4375,0.4287109375,-0.75244140625,0.53955078125
58,1597982318117057,-0.0457763671875,-0.4893798828125,0.72454833984375,0.48309326171875,-3.5,1.4375,-0.3125,0.40869140625,-0.78662109375,0.5361328125
59,1597982318140147,-0.045654296875,-0.4891357421875,0.724609375,0.4832763671875,1.0,0.1875,-1.125,0.4072265625,-0.76318359375,0.529296875
60,1597982318158148,-0.04541015625,-0.4891357421875,0.7247314453125,0.48309326171875,1.0,-1.5625,0.3125,0.404296875,-0.7529296875,0.51806640625
61,1597982318177147,-0.04547119140625,-0.4892578125,0.7247314453125,0.48297119140625,-1.125,-0.5,1.0,0.42236328125,-0.76513671875,0.5302734375
62,1597982318200150,-0.0458984375,-0.4896240234375,0.72467041015625,0.48272705078125,-2.1875,0.0625,1.5,0.4052734375,-0.77197265625,0.51806640625
63,1597982318218219,-0.0462646484375,-0.4898681640625,0.72454833984375,0.48260498046875,-2.1875,0.125,0.0625,0.39306640625,-0.77197265625,0.51904296875
64,1597982318239308,-0.0462646484375,-0.48980712890625,0.72454833984375,0.48260498046875,-0.25,-0.0625,-0.75,0.40771484375,-0.75439453125,0.5283203125
65,1597982318260332,-0.04638671875,-0.4901123046875,0.724365234375,0.48260498046875,-2.0,-0.25,-0.375,0.41259765625,-0.7666015625,0.521484375
66,1597982318277300,-0.04638671875,-0.4901123046875,0.724365234375,0.48260498046875,-0.5625,0.375,-0.25,0.40966796875,-0.77490234375,0.53466796875
67,1597982318297397,-0.04638671875,-0.4901123046875,0.724365234375,0.48260498046875,-1.0,-0.5,0.1875,0.40283203125,-0.75439453125,0.5205078125
68,1597982318320388,-0.04656982421875,-0.490478515625,0.72406005859375,0.48260498046875,-3.1875,-0.1875,-0.1875,0.41357421875,-0.76025390625,0.51953125
69,1597982318342395,-0.0467529296875,-0.4906005859375,0.72393798828125,0.482666015625,-1.5625,0.6875,0.1875,0.421875,-0.77001953125,0.52587890625
70,1597982318357395,-0.04705810546875,-0.49072265625,0.7237548828125,0.48284912109375,-2.5625,1.25,-0.25,0.40771484375,-0.7587890625,0.52734375
71,1597982318382387,-0.04718017578125,-0.49078369140625,0.7236328125,0.48291015625,-1.9375,0.375,0.0625,0.40673828125,-0.73876953125,0.521484375
72,1597982318402389,-0.0474853515625,-0.49139404296875,0.72314453125,0.48297119140625,-4.4375,-0.3125,-1.0625,0.40380859375,-0.76806640625,0.51416015625
73,1597982318420395,-0.0478515625,-0.49200439453125,0.7225341796875,0.4832763671875,-4.9375,1.25,-1.8125,0.421875,-0.7666015625,0.51171875
74,1597982318440388,-0.04852294921875,-0.49237060546875,0.7218017578125,0.48388671875,-5.5,4.1875,-1.8125,0.43310546875,-0.783203125,0.5302734375
75,1597982318457479,-0.0494384765625,-0.4923095703125,0.72137451171875,0.48455810546875,-3.4375,6.0625,-0.8125,0.42626953125,-0.77783203125,0.52978515625
76,1597982318477572,-0.05035400390625,-0.4918212890625,0.7213134765625,0.4849853515625,-1.375,5.4375,-0.25,0.39892578125,-0.77685546875,0.53369140625
77,1597982318499645,-0.05096435546875,-0.4915771484375,0.72125244140625,0.4852294921875,-1.5625,3.125,0.125,0.40234375,-0.7734375,0.53466796875
78,1597982318522639,-0.05126953125,-0.49151611328125,0.72125244140625,0.4852294921875,-1.0625,1.25,0.8125,0.40673828125,-0.76806640625,0.5244140625
79,1597982318537640,-0.0516357421875,-0.491455078125,0.72125244140625,0.4853515625,-0.75,2.25,1.0625,0.41650390625,-0.77587890625,0.5234375
80,1597982318559641,-0.05206298828125,-0.49090576171875,0.7215576171875,0.48541259765625,2.6875,3.4375,1.5,0.408203125,-0.78173828125,0.513671875
81,1597982318582631,-0.05230712890625,-0.4901123046875,0.721923828125,0.485595703125,3.6875,3.25,0.625,0.39892578125,-0.7734375,0.5224609375
82,1597982318598641,-0.05242919921875,-0.489501953125,0.72222900390625,0.48583984375,3.0625,2.8125,0.375,0.39990234375,-0.75732421875,0.5166015625
83,1597982318619641,-0.0526123046875,-0.4893798828125,0.7222900390625,0.48583984375,0.1875,1.125,0.6875,0.3984375,-0.7529296875,0.5087890625
84,1597982318642638,-0.05279541015625,-0.489501953125,0.72216796875,0.48583984375,-1.0625,0.8125,0.375,0.40771484375,-0.7666015625,0.51513671875
85,1597982318658632,-0.053466796875,-0.4901123046875,0.72174072265625,0.48577880859375,-5.0625,1.25,0.5,0.4013671875,-0.77783203125,0.5126953125
86,1597982318679641,-0.0537109375,-0.49017333984375,0.72161865234375,0.48590087890625,-0.5,1.125,-0.5,0.40283203125,-0.77880859375,0.51171875
87,1597982318702638,-0.0533447265625,-0.48956298828125,0.72186279296875,0.48614501953125,3.625,0.6875,-0.5625,0.40380859375,-0.75439453125,0.5244140625
88,1597982318718635,-0.0533447265625,-0.48956298828125,0.721923828125,0.48614501953125,-0.625,-0.9375,-0.3125,0.39697265625,-0.75634765625,0.51708984375
89,1597982318739641,-0.0533447265625,-0.4901123046875,0.72161865234375,0.48602294921875,-3.5625,-1.6875,-0.125,0.41015625,-0.76171875,0.52294921875
90,1597982318762641,-0.05340576171875,-0.490478515625,0.721435546875,0.48583984375,-2.1875,-1.375,0.375,0.40625,-0.77392578125,0.5244140625
91,1597982318778635,-0.05316162109375,-0.4906005859375,0.7215576171875,0.485595703125,0.625,-2.375,-0.25,0.396484375,-0.7783203125,0.517578125
92,1597982318799643,-0.05279541015625,-0.49078369140625,0.7215576171875,0.4854736328125,0.5625,-2.4375,-0.8125,0.40234375,-0.7734375,0.51513671875
93,1597982318822641,-0.052490234375,-0.4908447265625,0.7215576171875,0.48541259765625,0.25,-1.6875,-0.625,0.40234375,-0.76318359375,0.5234375
94,1597982318838635,-0.05242919921875,-0.4912109375,0.72137451171875,0.4853515625,-2.125,-1.375,-0.5,0.408203125,-0.76708984375,0.5185546875
95,1597982318859640,-0.05255126953125,-0.4915771484375,0.72113037109375,0.48529052734375,-3.0625,-0.9375,-0.1875,0.40234375,-0.7705078125,0.52734375
96,1597982318882722,-0.0523681640625,-0.49169921875,0.72113037109375,0.4852294921875,-0.6875,-1.5625,-0.1875,0.41162109375,-0.77392578125,0.5283203125
97,1597982318898723,-0.05206298828125,-0.4915771484375,0.72137451171875,0.4849853515625,1.5,-2.125,0.5,0.40576171875,-0.7734375,0.52880859375
98,1597982318919729,-0.05194091796875,-0.49176025390625,0.7213134765625,0.48486328125,-1.4375,-1.5625,0.375,0.40869140625,-0.76513671875,0.52978515625
99,1597982318942728,-0.05218505859375,-0.49237060546875,0.72113037109375,0.48455810546875,-3.4375,-1.625,0.9375,0.4033203125,-0.779296875,0.513671875
100,1597982318960731,-0.05224609375,-0.49237060546875,0.72113037109375,0.4844970703125,-1.0,-0.625,0.375,0.408203125,-0.78515625,0.5185546875
