index,timestamp,orientation_x,orientation_y,orientation_z,orientation_w,gyroscope_x,gyroscope_y,gyroscope_z,acceleration_x,acceleration_y,acceleration_z
0,1596984124877752,0.11944580078125,0.12481689453125,0.5614013671875,0.80926513671875,20.5,3.0,0.75,-0.06787109375,0.31103515625,0.93017578125
1,1596984124898750,0.12225341796875,0.1278076171875,0.56097412109375,0.80865478515625,22.4375,4.9375,-0.1875,-0.0693359375,0.3564453125,0.94970703125
2,1596984124915752,0.1231689453125,0.12957763671875,0.56072998046875,0.80841064453125,8.25,4.125,-0.75,-0.08935546875,0.37890625,0.94970703125
3,1596984124937751,0.12237548828125,0.1297607421875,0.5609130859375,0.808349609375,-4.75,2.5625,0.8125,-0.0849609375,0.35546875,0.90478515625
4,1596984124958752,0.11993408203125,0.128173828125,0.56170654296875,0.80841064453125,-16.4375,-0.625,3.3125,-0.0927734375,0.3115234375,0.87890625
5,1596984124982752,0.11773681640625,0.12640380859375,0.5625,0.8084716796875,-14.625,-2.1875,3.8125,-0.091796875,0.283203125,0.89404296875
6,1596984125004755,0.1171875,0.1258544921875,0.56280517578125,0.80841064453125,-1.375,-1.0625,1.75,-0.07666015625,0.2705078125,0.89453125
7,1596984125019759,0.1185302734375,0.12664794921875,0.56268310546875,0.8082275390625,9.5625,-0.9375,0.625,-0.07421875,0.31298828125,0.91943359375
8,1596984125034817,0.1209716796875,0.1280517578125,0.56243896484375,0.80780029296875,14.625,-0.4375,0.875,-0.0595703125,0.36474609375,0.92626953125
9,1596984125057750,0.1219482421875,0.128173828125,0.56268310546875,0.80743408203125,1.8125,-2.375,2.5625,-0.06982421875,0.3837890625,0.9228515625
10,1596984125078752,0.121337890625,0.12689208984375,0.56329345703125,0.80731201171875,-8.0625,-3.75,3.625,-0.0712890625,0.33740234375,0.91796875
11,1596984125094752,0.12017822265625,0.12548828125,0.56396484375,0.8072509765625,-7.8125,-2.625,3.875,-0.06884765625,0.28759765625,0.9072265625
12,1596984125117751,0.12042236328125,0.12506103515625,0.564453125,0.80694580078125,2.625,-2.25,3.8125,-0.0693359375,0.28173828125,0.91796875
13,1596984125138752,0.12200927734375,0.126220703125,0.56451416015625,0.80645751953125,10.8125,0.5,2.0,-0.06298828125,0.34521484375,0.9375
14,1596984125155751,0.12322998046875,0.12701416015625,0.564453125,0.80621337890625,5.0,-0.1875,0.875,-0.06884765625,0.39599609375,0.935546875
15,1596984125177754,0.12274169921875,0.12603759765625,0.5648193359375,0.80621337890625,-8.8125,-2.875,1.5625,-0.0634765625,0.37841796875,0.92236328125
16,1596984125198753,0.12115478515625,0.1240234375,0.56536865234375,0.80633544921875,-15.0,-3.625,2.4375,-0.06005859375,0.32861328125,0.89990234375
17,1596984125214751,0.12017822265625,0.12274169921875,0.56573486328125,0.80645751953125,-6.8125,-1.8125,1.0625,-0.046875,0.30029296875,0.93505859375
18,1596984125237751,0.12066650390625,0.12286376953125,0.565673828125,0.806396484375,4.3125,-0.25,0.125,-0.0517578125,0.3095703125,0.94482421875
19,1596984125258756,0.12176513671875,0.1234130859375,0.56561279296875,0.80621337890625,6.3125,-0.3125,0.375,-0.052734375,0.34814453125,0.94287109375
20,1596984125282751,0.1224365234375,0.12359619140625,0.565673828125,0.80596923828125,1.0625,-1.0,1.25,-0.05859375,0.3740234375,0.93212890625
21,1596984125304751,0.12176513671875,0.12298583984375,0.56585693359375,0.80609130859375,-7.375,-1.0,0.1875,-0.06396484375,0.36181640625,0.92626953125
22,1596984125319756,0.1207275390625,0.1219482421875,0.56597900390625,0.8062744140625,-8.3125,-1.125,-0.0625,-0.0546875,0.32177734375,0.9189453125
23,1596984125334752,0.1202392578125,0.12139892578125,0.56591796875,0.8065185546875,-3.1875,-0.5625,-1.0625,-0.05224609375,0.30859375,0.91943359375
24,1596984125357754,0.1204833984375,0.12158203125,0.56573486328125,0.80657958984375,3.4375,0.5625,-1.5,-0.0478515625,0.30908203125,0.94873046875
25,1596984125379752,0.1214599609375,0.12237548828125,0.56536865234375,0.80657958984375,7.0,0.375,-1.625,-0.056640625,0.3408203125,0.9462890625
26,1596984125394756,0.12213134765625,0.1229248046875,0.56512451171875,0.8065185546875,3.5625,0.0,-0.75,-0.0654296875,0.36083984375,0.939453125
27,1596984125417751,0.1217041015625,0.12255859375,0.56512451171875,0.80670166015625,-4.6875,-1.0,-0.6875,-0.0654296875,0.3486328125,0.91796875
28,1596984125439750,0.12060546875,0.12152099609375,0.565185546875,0.80694580078125,-7.9375,-1.625,-0.1875,-0.06298828125,0.30810546875,0.91455078125
29,1596984125455751,0.12054443359375,0.1214599609375,0.56524658203125,0.80694580078125,-0.625,-0.3125,-0.875,-0.05224609375,0.28662109375,0.91650390625
30,1596984125477752,0.12115478515625,0.12213134765625,0.56494140625,0.80694580078125,6.25,1.375,-1.4375,-0.056640625,0.31591796875,0.9345703125
31,1596984125506759,0.1217041015625,0.123046875,0.564697265625,0.806884765625,4.9375,2.0,-1.125,-0.0634765625,0.34521484375,0.92919921875
32,1596984125514751,0.12176513671875,0.12310791015625,0.564697265625,0.806884765625,-0.8125,0.9375,-0.625,-0.06201171875,0.349609375,0.92724609375
33,1596984125537751,0.1209716796875,0.12255859375,0.5648193359375,0.8070068359375,-5.875,-0.25,-0.0625,-0.064453125,0.3271484375,0.916015625
34,1596984125568755,0.12017822265625,0.12188720703125,0.56494140625,0.80712890625,-4.5,-0.75,0.3125,-0.06494140625,0.30224609375,0.9130859375
35,1596984125582752,0.120361328125,0.12225341796875,0.56494140625,0.8070068359375,2.75,0.9375,0.25,-0.06005859375,0.306640625,0.91259765625
36,1596984125598752,0.12078857421875,0.123046875,0.56488037109375,0.806884765625,4.6875,1.875,0.0,-0.06884765625,0.32666015625,0.92333984375
37,1596984125619755,0.12078857421875,0.123046875,0.56488037109375,0.806884765625,-0.125,0.625,0.8125,-0.0703125,0.3369140625,0.92431640625
38,1596984125634752,0.12054443359375,0.1229248046875,0.56500244140625,0.806884765625,-1.8125,0.1875,0.625,-0.06103515625,0.3310546875,0.921875
39,1596984125657753,0.12005615234375,0.12261962890625,0.565185546875,0.806884765625,-3.125,-0.0625,0.6875,-0.0654296875,0.3232421875,0.92578125
40,1596984125679752,0.11981201171875,0.1224365234375,0.5653076171875,0.80682373046875,-1.375,-0.0625,0.625,-0.06103515625,0.3154296875,0.91748046875
41,1596984125694753,0.11981201171875,0.1224365234375,0.5653076171875,0.80682373046875,-0.0625,0.0625,0.125,-0.05908203125,0.31787109375,0.91845703125
42,1596984125717753,0.11981201171875,0.1224365234375,0.5653076171875,0.80682373046875,0.1875,-0.25,0.375,-0.0673828125,0.3232421875,0.92626953125
43,1596984125740755,0.11981201171875,0.1224365234375,0.5653076171875,0.80682373046875,0.0625,0.0625,-0.0625,-0.0625,0.32470703125,0.9326171875
44,1596984125754754,0.1197509765625,0.122314453125,0.56524658203125,0.806884765625,-1.1875,-0.5,-0.25,-0.0634765625,0.33251953125,0.9228515625
45,1596984125777751,0.11932373046875,0.121826171875,0.56536865234375,0.80694580078125,-3.1875,-0.875,0.125,-0.05908203125,0.322265625,0.93115234375
46,1596984125799755,0.119140625,0.1214599609375,0.56536865234375,0.8070068359375,-1.1875,-0.5625,0.0,-0.0546875,0.3115234375,0.92578125
47,1596984125814751,0.119140625,0.1214599609375,0.56536865234375,0.8070068359375,0.6875,-0.3125,0.125,-0.05908203125,0.314453125,0.92431640625
48,1596984125837751,0.119140625,0.1214599609375,0.56536865234375,0.8070068359375,0.375,-0.4375,-0.125,-0.06103515625,0.32568359375,0.92333984375
49,1596984125859752,0.11907958984375,0.12127685546875,0.56536865234375,0.80706787109375,-1.1875,-0.5625,-0.1875,-0.06005859375,0.32958984375,0.93212890625
50,1596984125881752,0.11871337890625,0.1209716796875,0.56549072265625,0.80712890625,-2.75,-0.3125,0.25,-0.06298828125,0.3212890625,0.9296875
51,1596984125897752,0.11865234375,0.1209716796875,0.56549072265625,0.80712890625,-0.625,-0.1875,0.0625,-0.06396484375,0.31494140625,0.93798828125
52,1596984125919751,0.11865234375,0.1209716796875,0.56549072265625,0.80712890625,-0.625,-0.1875,-0.25,-0.06640625,0.31591796875,0.9267578125
53,1596984125941888,0.11865234375,0.1209716796875,0.56549072265625,0.80712890625,0.1875,-0.0625,-0.1875,-0.0576171875,0.31982421875,0.921875
54,1596984125958763,0.11865234375,0.1209716796875,0.56549072265625,0.80712890625,-0.625,0.375,-0.1875,-0.0595703125,0.3232421875,0.92529296875
55,1596984125979786,0.11865234375,0.1209716796875,0.56549072265625,0.80712890625,-0.6875,0.0625,0.125,-0.06494140625,0.322265625,0.931640625
56,1596984126001752,0.11865234375,0.1209716796875,0.56549072265625,0.80712890625,-0.4375,0.0625,0.125,-0.0625,0.31982421875,0.93017578125
57,1596984126017754,0.11859130859375,0.1209716796875,0.56549072265625,0.80712890625,-0.8125,0.125,-0.1875,-0.06103515625,0.31298828125,0.9208984375
58,1596984126039750,0.11846923828125,0.12078857421875,0.56549072265625,0.80712890625,-1.0625,-0.4375,0.0,-0.06103515625,0.31787109375,0.92529296875
59,1596984126060753,0.11846923828125,0.1209716796875,0.56549072265625,0.80712890625,1.125,0.875,0.0625,-0.05908203125,0.318359375,0.9306640625
60,1596984126077754,0.11846923828125,0.1209716796875,0.56549072265625,0.80712890625,0.0625,0.3125,0.1875,-0.06787109375,0.3251953125,0.93408203125
61,1596984126099751,0.11846923828125,0.12103271484375,0.56549072265625,0.80712890625,-0.4375,-0.125,0.1875,-0.064453125,0.3251953125,0.9228515625
62,1596984126121751,0.118408203125,0.12091064453125,0.56549072265625,0.80712890625,-1.0625,-0.25,0.0625,-0.0615234375,0.322265625,0.91943359375
63,1596984126137774,0.11834716796875,0.12091064453125,0.56549072265625,0.80712890625,-0.8125,-0.0625,0.1875,-0.06103515625,0.314453125,0.92041015625
64,1596984126160754,0.11834716796875,0.12091064453125,0.56549072265625,0.80712890625,0.9375,0.5625,0.0,-0.06005859375,0.31884765625,0.93017578125
65,1596984126181752,0.11834716796875,0.12091064453125,0.56549072265625,0.80712890625,0.5,0.5625,0.1875,-0.06591796875,0.32373046875,0.92822265625
66,1596984126197752,0.11834716796875,0.12091064453125,0.56549072265625,0.80712890625,-0.375,0.1875,0.25,-0.06787109375,0.32568359375,0.9248046875
67,1596984126219757,0.11810302734375,0.120849609375,0.56549072265625,0.80718994140625,-1.625,0.0,-0.125,-0.06689453125,0.3232421875,0.92431640625
68,1596984126241753,0.1177978515625,0.12060546875,0.56549072265625,0.80731201171875,-1.9375,-0.25,-0.5,-0.06298828125,0.3134765625,0.92236328125
69,1596984126257751,0.1177978515625,0.12060546875,0.56549072265625,0.80731201171875,-0.6875,-0.125,-0.4375,-0.056640625,0.3193359375,0.9267578125
70,1596984126279752,0.1177978515625,0.12060546875,0.56549072265625,0.80731201171875,-0.3125,-0.25,-0.1875,-0.05908203125,0.31982421875,0.92724609375
71,1596984126301751,0.1177978515625,0.12060546875,0.56549072265625,0.80731201171875,-0.25,-0.1875,0.0625,-0.0576171875,0.3203125,0.93798828125
72,1596984126317752,0.1177978515625,0.12060546875,0.56549072265625,0.80731201171875,-0.5625,-0.25,0.1875,-0.056640625,0.3203125,0.93115234375
73,1596984126339751,0.11761474609375,0.12042236328125,0.5654296875,0.807373046875,-1.25,-0.375,-0.375,-0.0625,0.318359375,0.93017578125
74,1596984126363754,0.11737060546875,0.1202392578125,0.56536865234375,0.80743408203125,-1.375,-0.5625,-0.5625,-0.06298828125,0.31494140625,0.92333984375
75,1596984126377753,0.11737060546875,0.12017822265625,0.5654296875,0.80743408203125,-0.375,-0.3125,-0.5,-0.056640625,0.3125,0.91796875
76,1596984126399754,0.11737060546875,0.12017822265625,0.5654296875,0.8074951171875,0.5,-0.125,-0.375,-0.0625,0.3134765625,0.92822265625
77,1596984126422751,0.11749267578125,0.12030029296875,0.5653076171875,0.8074951171875,1.0625,-0.25,-0.6875,-0.06396484375,0.31689453125,0.9306640625
78,1596984126437753,0.11749267578125,0.12030029296875,0.5653076171875,0.8074951171875,-0.5625,-0.5625,-0.6875,-0.0595703125,0.326171875,0.931640625
79,1596984126459751,0.11724853515625,0.12005615234375,0.565185546875,0.8076171875,-2.1875,-0.375,-0.75,-0.060546875,0.3203125,0.921875
80,1596984126482752,0.11700439453125,0.119873046875,0.565185546875,0.8077392578125,-1.5625,-0.25,-0.25,-0.0625,0.31494140625,0.9326171875
81,1596984126496752,0.116943359375,0.11993408203125,0.565185546875,0.80767822265625,1.0625,-0.0625,0.125,-0.0673828125,0.3076171875,0.9375
82,1596984126519752,0.11712646484375,0.1201171875,0.56512451171875,0.8077392578125,1.5,0.125,-0.4375,-0.0625,0.32177734375,0.9296875
83,1596984126542751,0.11712646484375,0.1201171875,0.56512451171875,0.8077392578125,-0.8125,0.6875,-0.5625,-0.0615234375,0.31787109375,0.9287109375
84,1596984126556751,0.1165771484375,0.11993408203125,0.56512451171875,0.80780029296875,-2.3125,0.5,-0.4375,-0.06640625,0.3037109375,0.93017578125
85,1596984126580755,0.1165771484375,0.11993408203125,0.56512451171875,0.80780029296875,0.1875,0.25,-0.75,-0.06982421875,0.31298828125,0.93212890625
86,1596984126603752,0.11651611328125,0.11993408203125,0.56512451171875,0.80780029296875,0.9375,0.1875,-0.625,-0.06494140625,0.31591796875,0.93115234375
87,1596984126616752,0.1165771484375,0.1199951171875,0.56512451171875,0.80780029296875,-0.25,-0.125,-0.1875,-0.06591796875,0.32373046875,0.92236328125
88,1596984126647752,0.11627197265625,0.11981201171875,0.56512451171875,0.807861328125,-1.8125,0.0,-0.1875,-0.06201171875,0.31201171875,0.921875
89,1596984126677753,0.11590576171875,0.11968994140625,0.565185546875,0.80792236328125,-1.25,0.625,0.0,-0.06298828125,0.30517578125,0.9296875
90,1596984126679751,0.11590576171875,0.119873046875,0.56512451171875,0.80792236328125,1.625,0.4375,-0.0625,-0.06787109375,0.3056640625,0.9365234375
91,1596984126699751,0.11614990234375,0.1201171875,0.5650634765625,0.80792236328125,1.5625,-0.0625,-0.25,-0.06396484375,0.32421875,0.92919921875
92,1596984126722751,0.11614990234375,0.1201171875,0.5650634765625,0.807861328125,-0.875,-0.125,0.1875,-0.06298828125,0.32275390625,0.92431640625
93,1596984126736753,0.11590576171875,0.119873046875,0.565185546875,0.80792236328125,-2.125,-0.0625,0.3125,-0.056640625,0.3125,0.92431640625
94,1596984126760753,0.11590576171875,0.11981201171875,0.565185546875,0.80792236328125,-0.3125,0.375,0.1875,-0.06201171875,0.31396484375,0.9306640625
95,1596984126782752,0.11590576171875,0.11981201171875,0.565185546875,0.80792236328125,0.375,0.0625,-0.25,-0.0595703125,0.31396484375,0.9296875
96,1596984126796752,0.11572265625,0.1197509765625,0.565185546875,0.80792236328125,-1.25,-0.125,-0.0625,-0.0625,0.3173828125,0.919921875
97,1596984126819758,0.11541748046875,0.11962890625,0.5653076171875,0.80792236328125,-1.5,0.375,0.5,-0.06494140625,0.30908203125,0.93212890625
98,1596984126842753,0.1153564453125,0.11956787109375,0.5653076171875,0.80792236328125,0.25,0.1875,0.75,-0.06396484375,0.28955078125,0.931640625
99,1596984126863753,0.11553955078125,0.11981201171875,0.5654296875,0.8077392578125,2.6875,0.5625,1.125,-0.06201171875,0.30419921875,0.9384765625
100,1596984126879754,0.115966796875,0.1202392578125,0.5654296875,0.80767822265625,2.9375,0.5,0.25,-0.0654296875,0.32666015625,0.9306640625
