index,timestamp,orientation_x,orientation_y,orientation_z,orientation_w,gyroscope_x,gyroscope_y,gyroscope_z,acceleration_x,acceleration_y,acceleration_z
0,1597982564933720,-0.158935546875,0.09710693359375,-0.50146484375,0.8448486328125,-14.875,0.0625,-0.75,-0.00830078125,-0.390625,0.953125
1,1597982564956731,-0.16070556640625,0.09808349609375,-0.50140380859375,0.844482421875,-9.1875,-0.5,-1.0625,-0.00830078125,-0.41943359375,0.95556640625
2,1597982564970711,-0.1607666015625,0.09808349609375,-0.50140380859375,0.84442138671875,0.125,0.0,-0.125,0.00048828125,-0.4091796875,0.9501953125
3,1597982564994712,-0.16009521484375,0.097900390625,-0.50152587890625,0.84454345703125,3.375,0.875,-0.1875,-0.009765625,-0.36767578125,0.9501953125
4,1597982565016711,-0.1600341796875,0.09808349609375,-0.50177001953125,0.84442138671875,-2.6875,1.375,-1.3125,-0.00341796875,-0.337890625,0.94775390625
5,1597982565030805,-0.16131591796875,0.09906005859375,-0.50189208984375,0.84393310546875,-9.6875,0.8125,-2.0625,-0.0146484375,-0.37744140625,0.943359375
6,1597982565053810,-0.16302490234375,0.10015869140625,-0.50177001953125,0.84356689453125,-10.0,0.4375,-0.6875,-0.00830078125,-0.4111328125,0.94140625
7,1597982565076814,-0.1639404296875,0.10064697265625,-0.50164794921875,0.8433837890625,-2.9375,-0.5,0.125,-0.00537109375,-0.431640625,0.94921875
8,1597982565090806,-0.16339111328125,0.100341796875,-0.50164794921875,0.84356689453125,4.8125,0.1875,0.4375,-0.0029296875,-0.40380859375,0.947265625
9,1597982565114893,-0.16241455078125,0.09979248046875,-0.5018310546875,0.84368896484375,5.5,0.5625,-0.0625,-0.00341796875,-0.37060546875,0.94970703125
10,1597982565136974,-0.162353515625,0.09979248046875,-0.5018310546875,0.84368896484375,0.125,0.6875,-0.6875,-0.0126953125,-0.36474609375,0.9423828125
11,1597982565151973,-0.16302490234375,0.1002197265625,-0.501708984375,0.84356689453125,-5.5,-0.125,-0.1875,-0.0087890625,-0.3759765625,0.9501953125
12,1597982565173971,-0.16387939453125,0.1007080078125,-0.501708984375,0.8433837890625,-5.3125,0.0625,-0.5,-0.00341796875,-0.390625,0.953125
13,1597982565196973,-0.16424560546875,0.1009521484375,-0.501708984375,0.84326171875,-2.625,0.375,0.0,-0.00439453125,-0.3916015625,0.9501953125
14,1597982565218073,-0.16448974609375,0.10125732421875,-0.50164794921875,0.84320068359375,-2.3125,0.625,-0.125,-0.005859375,-0.38623046875,0.94482421875
15,1597982565234073,-0.16497802734375,0.10150146484375,-0.5015869140625,0.8431396484375,-2.5625,-0.5,0.0625,-0.00732421875,-0.396484375,0.9453125
16,1597982565257074,-0.1650390625,0.10107421875,-0.50140380859375,0.84326171875,0.3125,-2.0625,1.0,-0.0009765625,-0.3916015625,0.9677734375
17,1597982565278076,-0.1646728515625,0.100341796875,-0.5013427734375,0.843505859375,2.3125,-2.5,0.5625,-0.00341796875,-0.3662109375,0.9619140625
18,1597982565294065,-0.16461181640625,0.09991455078125,-0.50164794921875,0.8433837890625,-1.875,-0.8125,-2.0,0.01123046875,-0.33251953125,0.943359375
19,1597982565317076,-0.166015625,0.1004638671875,-0.50250244140625,0.842529296875,-15.5625,1.4375,-6.5,0.017578125,-0.294921875,0.96923828125
20,1597982565338068,-0.170166015625,0.10308837890625,-0.5030517578125,0.841064453125,-33.25,1.9375,-6.6875,-0.00341796875,-0.3310546875,0.95166015625
21,1597982565354065,-0.17694091796875,0.1068115234375,-0.5030517578125,0.83917236328125,-45.8125,-0.875,-6.0625,-0.00927734375,-0.4130859375,0.94091796875
22,1597982565377065,-0.18292236328125,0.1104736328125,-0.50299072265625,0.83746337890625,-38.125,0.0625,-5.1875,-0.017578125,-0.47412109375,0.93505859375
23,1597982565398081,-0.18756103515625,0.11322021484375,-0.50299072265625,0.8360595703125,-30.8125,-1.125,-5.1875,-0.0322265625,-0.45361328125,0.92626953125
24,1597982565414066,-0.19281005859375,0.11566162109375,-0.502685546875,0.834716796875,-30.9375,-4.875,-4.1875,-0.03076171875,-0.48486328125,0.90185546875
25,1597982565437075,-0.197265625,0.11669921875,-0.502197265625,0.83380126953125,-21.8125,-6.875,-1.375,0.021484375,-0.5087890625,0.90234375
26,1597982565458073,-0.19964599609375,0.1171875,-0.5020751953125,0.833251953125,-9.875,-3.1875,-1.6875,0.01904296875,-0.51171875,0.888671875
27,1597982565474065,-0.2008056640625,0.11737060546875,-0.50189208984375,0.83306884765625,-3.375,-2.625,-0.1875,0.00830078125,-0.49853515625,0.89453125
28,1597982565497074,-0.200927734375,0.1171875,-0.50201416015625,0.8330078125,1.0,-1.0,-1.0,0.0048828125,-0.47314453125,0.89501953125
29,1597982565518074,-0.2012939453125,0.1173095703125,-0.50213623046875,0.83282470703125,-1.75,-0.875,-1.5,-0.00146484375,-0.4619140625,0.89599609375
30,1597982565534065,-0.20208740234375,0.11749267578125,-0.50225830078125,0.83251953125,-3.75,-1.25,-1.9375,0.00048828125,-0.47705078125,0.90234375
31,1597982565557074,-0.202392578125,0.11712646484375,-0.50244140625,0.8323974609375,-0.0625,-1.9375,-2.0,0.013671875,-0.4716796875,0.9169921875
32,1597982565578162,-0.2021484375,0.1165771484375,-0.50274658203125,0.83233642578125,2.3125,-1.4375,-1.75,0.01416015625,-0.46044921875,0.91357421875
33,1597982565594157,-0.2021484375,0.11651611328125,-0.50274658203125,0.83233642578125,0.875,-0.75,-0.8125,0.01611328125,-0.45068359375,0.9228515625
34,1597982565617161,-0.20233154296875,0.11651611328125,-0.50274658203125,0.832275390625,-1.5,-0.6875,-0.4375,0.00732421875,-0.45849609375,0.9072265625
35,1597982565637250,-0.20281982421875,0.11663818359375,-0.5028076171875,0.8321533203125,-3.125,-0.8125,-1.0,0.0068359375,-0.46044921875,0.91455078125
36,1597982565654251,-0.20343017578125,0.1168212890625,-0.50274658203125,0.83197021484375,-3.1875,-1.125,-0.4375,0.0087890625,-0.4755859375,0.9111328125
37,1597982565676250,-0.20379638671875,0.11669921875,-0.5028076171875,0.83184814453125,-1.75,-0.75,-0.5625,0.02197265625,-0.46533203125,0.9111328125
38,1597982565699315,-0.2041015625,0.11676025390625,-0.50286865234375,0.83172607421875,-1.125,-0.3125,-0.75,0.01318359375,-0.47705078125,0.90673828125
39,1597982565714315,-0.2039794921875,0.11676025390625,-0.50286865234375,0.831787109375,1.0625,0.3125,0.3125,0.01025390625,-0.47119140625,0.91015625
40,1597982565736320,-0.2037353515625,0.11676025390625,-0.50274658203125,0.8319091796875,1.5625,-0.125,0.375,-0.00048828125,-0.47216796875,0.90283203125
41,1597982565759315,-0.20355224609375,0.1165771484375,-0.5028076171875,0.83197021484375,1.1875,-0.0625,-0.125,0.01416015625,-0.458984375,0.9072265625
42,1597982565774408,-0.2034912109375,0.1165771484375,-0.5028076171875,0.83197021484375,-0.4375,0.125,-0.75,0.01611328125,-0.45751953125,0.9130859375
43,1597982565796415,-0.20367431640625,0.11688232421875,-0.5029296875,0.83184814453125,-1.8125,0.6875,-0.6875,0.00146484375,-0.466796875,0.9150390625
44,1597982565819408,-0.20367431640625,0.11688232421875,-0.5029296875,0.83184814453125,-0.75,-0.375,-0.125,0.01025390625,-0.47021484375,0.91357421875
45,1597982565833407,-0.20343017578125,0.1165771484375,-0.50299072265625,0.83184814453125,1.75,-0.375,-0.3125,0.01708984375,-0.46728515625,0.91357421875
46,1597982565856492,-0.20318603515625,0.11639404296875,-0.5029296875,0.83197021484375,1.375,-0.375,0.5,0.01123046875,-0.4609375,0.9140625
47,1597982565879506,-0.20318603515625,0.11639404296875,-0.5029296875,0.83197021484375,-0.1875,0.0625,0.1875,0.0087890625,-0.453125,0.90966796875
48,1597982565893494,-0.2034912109375,0.11651611328125,-0.50286865234375,0.8319091796875,-1.8125,-0.5,-0.125,0.0087890625,-0.46484375,0.90283203125
49,1597982565916496,-0.203857421875,0.11651611328125,-0.5028076171875,0.8319091796875,-1.4375,-0.5,0.3125,0.0205078125,-0.4755859375,0.91845703125
50,1597982565939495,-0.203857421875,0.11651611328125,-0.5028076171875,0.8319091796875,0.625,0.0,0.8125,0.00830078125,-0.4765625,0.9140625
51,1597982565953492,-0.2034912109375,0.11627197265625,-0.50274658203125,0.83203125,2.375,-0.4375,0.75,0.0087890625,-0.46826171875,0.91259765625
52,1597982565976493,-0.2034912109375,0.11627197265625,-0.50274658203125,0.83203125,0.625,0.25,-0.75,0.01416015625,-0.4521484375,0.90478515625
53,1597982565999507,-0.20391845703125,0.11651611328125,-0.502685546875,0.83197021484375,-3.3125,-0.25,-0.0625,0.0078125,-0.46142578125,0.91015625
54,1597982566013494,-0.20428466796875,0.11663818359375,-0.502685546875,0.83184814453125,-2.0625,-0.25,-0.3125,0.01611328125,-0.4755859375,0.9130859375
55,1597982566036580,-0.20428466796875,0.11663818359375,-0.502685546875,0.83184814453125,0.8125,0.0625,-0.125,0.00830078125,-0.46826171875,0.91552734375
56,1597982566059577,-0.20404052734375,0.116455078125,-0.50250244140625,0.83203125,1.5,-0.875,0.875,0.00439453125,-0.46533203125,0.91064453125
57,1597982566073578,-0.20379638671875,0.11614990234375,-0.50250244140625,0.83209228515625,1.125,-0.5625,0.0625,0.015625,-0.4541015625,0.9169921875
58,1597982566096664,-0.20379638671875,0.11614990234375,-0.5025634765625,0.83209228515625,-0.75,0.0625,-0.0625,0.01171875,-0.46337890625,0.91259765625
59,1597982566119686,-0.20404052734375,0.11614990234375,-0.5023193359375,0.83221435546875,-1.1875,-1.375,0.75,0.00390625,-0.46728515625,0.9140625
60,1597982566124673,-0.20416259765625,0.1158447265625,-0.50225830078125,0.83221435546875,0.0,-2.6875,-0.4375,0.00390625,-0.46728515625,0.9150390625
61,1597982566140665,-0.20452880859375,0.1151123046875,-0.502197265625,0.832275390625,-0.0625,-4.625,-0.5,0.01318359375,-0.4599609375,0.91162109375
62,1597982566161673,-0.205078125,0.11444091796875,-0.502197265625,0.832275390625,-1.0625,-4.125,-0.8125,0.025390625,-0.4658203125,0.91357421875
63,1597982566184673,-0.20550537109375,0.1141357421875,-0.5020751953125,0.832275390625,-0.6875,-2.5625,0.125,0.02197265625,-0.47265625,0.9091796875
64,1597982566202666,-0.20550537109375,0.11395263671875,-0.50201416015625,0.83233642578125,0.375,-1.25,-0.125,0.01171875,-0.4697265625,0.9111328125
65,1597982566221667,-0.20550537109375,0.11395263671875,-0.50201416015625,0.83233642578125,-0.25,-0.5,-0.375,0.0166015625,-0.462890625,0.9072265625
66,1597982566244750,-0.205810546875,0.114013671875,-0.501953125,0.832275390625,-1.25,-1.125,-0.3125,0.01123046875,-0.47412109375,0.91015625
67,1597982566268748,-0.20587158203125,0.11376953125,-0.501953125,0.832275390625,0.5625,-1.375,0.0,0.01806640625,-0.470703125,0.9091796875
68,1597982566281748,-0.205810546875,0.11346435546875,-0.501953125,0.83233642578125,1.1875,-1.0625,-0.1875,0.02197265625,-0.46630859375,0.908203125
69,1597982566304840,-0.205810546875,0.11346435546875,-0.501953125,0.83233642578125,0.3125,-0.375,-0.25,0.0166015625,-0.4599609375,0.91455078125
70,1597982566322832,-0.20599365234375,0.11358642578125,-0.50189208984375,0.832275390625,-1.6875,-0.1875,-0.0625,0.0126953125,-0.466796875,0.91259765625
71,1597982566341835,-0.20599365234375,0.11358642578125,-0.50189208984375,0.832275390625,-0.875,-0.625,0.0,0.017578125,-0.478515625,0.90869140625
72,1597982566364834,-0.20587158203125,0.1134033203125,-0.501953125,0.83233642578125,1.5625,-0.3125,-0.125,0.02001953125,-0.47119140625,0.912109375
73,1597982566382833,-0.20556640625,0.11322021484375,-0.50201416015625,0.8323974609375,1.4375,0.0,-0.125,0.02001953125,-0.45654296875,0.90673828125
74,1597982566401833,-0.20556640625,0.11328125,-0.50201416015625,0.8323974609375,-0.5625,-0.25,0.0625,0.0107421875,-0.4716796875,0.90576171875
75,1597982566424835,-0.20556640625,0.11322021484375,-0.50201416015625,0.8323974609375,-0.875,0.25,-0.5,0.02294921875,-0.47119140625,0.9111328125
76,1597982566442833,-0.20556640625,0.11328125,-0.50201416015625,0.8323974609375,-0.25,-0.1875,-0.0625,0.01123046875,-0.47216796875,0.91650390625
77,1597982566461834,-0.20550537109375,0.1131591796875,-0.50201416015625,0.83245849609375,1.0625,-0.5625,-0.125,0.0146484375,-0.46533203125,0.9033203125
78,1597982566484843,-0.20550537109375,0.11309814453125,-0.50201416015625,0.83245849609375,0.9375,0.0,-0.4375,0.01953125,-0.4609375,0.908203125
79,1597982566502834,-0.2054443359375,0.11309814453125,-0.50201416015625,0.83245849609375,-0.875,-0.125,0.3125,0.015625,-0.4619140625,0.91064453125
80,1597982566521825,-0.2054443359375,0.1131591796875,-0.50201416015625,0.83245849609375,-1.0,-0.6875,0.25,0.01513671875,-0.4716796875,0.90625
81,1597982566544834,-0.20550537109375,0.11309814453125,-0.50201416015625,0.83245849609375,0.3125,-0.3125,-0.1875,0.02734375,-0.46533203125,0.91259765625
82,1597982566562833,-0.20550537109375,0.11309814453125,-0.50201416015625,0.83245849609375,-0.1875,0.125,0.25,0.0205078125,-0.46533203125,0.91259765625
83,1597982566581833,-0.20550537109375,0.1131591796875,-0.50201416015625,0.83245849609375,-0.0625,0.0,0.8125,0.01220703125,-0.47900390625,0.9130859375
84,1597982566604828,-0.20526123046875,0.1129150390625,-0.5020751953125,0.83245849609375,1.3125,-0.0625,-0.1875,0.02490234375,-0.45703125,0.91162109375
85,1597982566622833,-0.20526123046875,0.1129150390625,-0.5020751953125,0.83245849609375,-0.75,-0.1875,-0.375,0.013671875,-0.45947265625,0.91455078125
86,1597982566641834,-0.20556640625,0.113037109375,-0.501953125,0.83245849609375,-1.625,-0.5625,0.125,0.01318359375,-0.47265625,0.90576171875
87,1597982566664835,-0.20556640625,0.113037109375,-0.501953125,0.83245849609375,-0.375,-0.5625,-0.3125,0.0185546875,-0.474609375,0.90673828125
88,1597982566682834,-0.20562744140625,0.113037109375,-0.501953125,0.83245849609375,0.875,-0.1875,0.1875,0.02099609375,-0.4755859375,0.91357421875
89,1597982566701834,-0.20538330078125,0.1129150390625,-0.50201416015625,0.83251953125,1.125,0.0,0.0,0.01904296875,-0.46044921875,0.9130859375
90,1597982566724833,-0.20538330078125,0.1129150390625,-0.50201416015625,0.83251953125,-0.75,0.125,0.0,0.01220703125,-0.4677734375,0.90771484375
91,1597982566742832,-0.20562744140625,0.11297607421875,-0.501953125,0.83245849609375,-1.125,-0.25,-0.0625,0.0224609375,-0.46923828125,0.90478515625
92,1597982566761834,-0.20562744140625,0.11297607421875,-0.501953125,0.83245849609375,-0.375,-0.3125,-0.0625,0.01611328125,-0.470703125,0.9091796875
93,1597982566784925,-0.20562744140625,0.11297607421875,-0.501953125,0.83245849609375,0.5,-0.25,0.5,0.0185546875,-0.46728515625,0.916015625
94,1597982566802934,-0.20556640625,0.11297607421875,-0.501953125,0.83245849609375,0.5625,-0.375,0.3125,0.01806640625,-0.45703125,0.91455078125
95,1597982566821909,-0.20556640625,0.11297607421875,-0.501953125,0.83245849609375,-0.75,-0.5,0.0,0.01123046875,-0.4638671875,0.90966796875
96,1597982566844915,-0.20611572265625,0.1129150390625,-0.50177001953125,0.83245849609375,-2.3125,-2.4375,0.25,0.01416015625,-0.46826171875,0.91162109375
97,1597982566862910,-0.20654296875,0.1126708984375,-0.501708984375,0.8323974609375,-1.5625,-2.375,-0.125,0.02294921875,-0.46875,0.908203125
98,1597982566881919,-0.20672607421875,0.11248779296875,-0.50164794921875,0.83245849609375,-0.125,-1.5,0.0,0.021484375,-0.4736328125,0.91357421875
99,1597982566904910,-0.20660400390625,0.11236572265625,-0.5015869140625,0.83251953125,1.25,-0.5625,0.3125,0.017578125,-0.4697265625,0.90771484375
100,1597982566922927,-0.20660400390625,0.11236572265625,-0.5015869140625,0.83251953125,-0.5,-1.0,0.0,0.0185546875,-0.46337890625,0.912109375
