index,timestamp,orientation_x,orientation_y,orientation_z,orientation_w,gyroscope_x,gyroscope_y,gyroscope_z,acceleration_x,acceleration_y,acceleration_z
0,1597983237117658,0.2542724609375,0.58892822265625,-0.43731689453125,-0.63031005859375,-0.6875,-6.5,2.5625,0.52978515625,-0.8701171875,0.15673828125
1,1597983237135651,0.25433349609375,0.58953857421875,-0.437255859375,-0.6297607421875,-2.5,-3.375,1.875,0.53125,-0.8251953125,0.1650390625
2,1597983237157649,0.2559814453125,0.59051513671875,-0.43585205078125,-0.629150390625,-14.0,0.3125,-0.125,0.51318359375,-0.841796875,0.1728515625
3,1597983237177658,0.2559814453125,0.5908203125,-0.435546875,-0.6290283203125,-3.6875,-2.0625,-0.625,0.5244140625,-0.82958984375,0.1962890625
4,1597983237195652,0.25653076171875,0.5911865234375,-0.43585205078125,-0.6282958984375,-2.4375,-2.4375,4.0625,0.53125,-0.85791015625,0.16259765625
5,1597983237217649,0.2579345703125,0.591796875,-0.4354248046875,-0.62744140625,-8.375,0.0,5.75,0.5439453125,-0.8447265625,0.15478515625
6,1597983237237658,0.25994873046875,0.5926513671875,-0.4344482421875,-0.62646484375,-14.1875,0.0625,4.25,0.50830078125,-0.830078125,0.158203125
7,1597983237255652,0.26092529296875,0.59466552734375,-0.43341064453125,-0.6248779296875,-12.3125,-7.8125,-1.9375,0.49658203125,-0.88427734375,0.12353515625
8,1597983237277650,0.2601318359375,0.5960693359375,-0.43280029296875,-0.624267578125,-2.3125,-7.6875,-6.125,0.517578125,-0.85546875,0.13916015625
9,1597983237297658,0.25994873046875,0.59783935546875,-0.43243408203125,-0.6229248046875,-3.25,-9.0,-4.9375,0.51611328125,-0.93798828125,0.10107421875
10,1597983237315653,0.25885009765625,0.59814453125,-0.433349609375,-0.6224365234375,8.125,-5.8125,-2.4375,0.5380859375,-0.93408203125,0.123046875
11,1597983237337652,0.256103515625,0.5953369140625,-0.43597412109375,-0.62445068359375,28.1875,5.9375,-0.9375,0.5126953125,-0.8291015625,0.16796875
12,1597983237357743,0.253173828125,0.59136962890625,-0.4376220703125,-0.628173828125,28.1875,15.6875,-4.375,0.53173828125,-0.7724609375,0.2119140625
13,1597983237379743,0.25213623046875,0.58782958984375,-0.43792724609375,-0.6317138671875,14.5625,19.375,-4.25,0.51318359375,-0.7626953125,0.23828125
14,1597983237397734,0.25274658203125,0.58770751953125,-0.436279296875,-0.6328125,-7.8125,7.25,-5.125,0.51123046875,-0.78076171875,0.2001953125
15,1597983237418738,0.25372314453125,0.589111328125,-0.4344482421875,-0.63232421875,-13.5,-1.875,-4.75,0.517578125,-0.83935546875,0.17236328125
16,1597983237439742,0.25372314453125,0.5909423828125,-0.4334716796875,-0.63128662109375,-8.625,-8.25,-4.375,0.53173828125,-0.857421875,0.16357421875
17,1597983237457734,0.2529296875,0.5911865234375,-0.4334716796875,-0.63140869140625,3.125,-1.5,-0.875,0.56591796875,-0.828125,0.16162109375
18,1597983237478734,0.253173828125,0.59033203125,-0.43365478515625,-0.63189697265625,2.4375,5.375,3.0,0.5517578125,-0.83447265625,0.17431640625
19,1597983237494742,0.2542724609375,0.58966064453125,-0.43402099609375,-0.63189697265625,-2.3125,3.9375,6.1875,0.5283203125,-0.83251953125,0.1953125
20,1597983237518734,0.2557373046875,0.59002685546875,-0.43389892578125,-0.63104248046875,-7.75,-0.375,5.1875,0.51904296875,-0.8544921875,0.169921875
21,1597983237538743,0.25628662109375,0.59027099609375,-0.43402099609375,-0.6304931640625,-2.125,-1.3125,3.0,0.5205078125,-0.84716796875,0.16259765625
22,1597983237554734,0.25628662109375,0.58990478515625,-0.43438720703125,-0.630615234375,2.75,1.625,1.6875,0.53369140625,-0.85205078125,0.1640625
23,1597983237577734,0.25665283203125,0.58941650390625,-0.4344482421875,-0.630859375,1.0,3.5625,1.125,0.5126953125,-0.83349609375,0.1669921875
24,1597983237598735,0.25689697265625,0.58892822265625,-0.43438720703125,-0.6312255859375,0.5,3.4375,-0.375,0.515625,-0.849609375,0.17822265625
25,1597983237614742,0.2564697265625,0.5889892578125,-0.43438720703125,-0.63140869140625,1.9375,-0.8125,-2.5625,0.515625,-0.8388671875,0.16845703125
26,1597983237637734,0.2559814453125,0.58880615234375,-0.43426513671875,-0.6318359375,1.625,0.6875,-2.125,0.53857421875,-0.84326171875,0.1923828125
27,1597983237658748,0.256103515625,0.5885009765625,-0.4342041015625,-0.63214111328125,-0.4375,2.0625,0.25,0.52685546875,-0.83349609375,0.18896484375
28,1597983237675746,0.25689697265625,0.5889892578125,-0.43365478515625,-0.6317138671875,-6.5625,-0.4375,0.6875,0.51806640625,-0.83447265625,0.17529296875
29,1597983237697734,0.25714111328125,0.5892333984375,-0.433349609375,-0.631591796875,-3.0,-0.1875,0.0,0.52734375,-0.837890625,0.173828125
30,1597983237718733,0.25750732421875,0.58953857421875,-0.43292236328125,-0.6314697265625,-3.375,0.0,-0.3125,0.529296875,-0.84326171875,0.16845703125
31,1597983237734745,0.25750732421875,0.58953857421875,-0.43292236328125,-0.6314697265625,-0.6875,-0.0625,0.875,0.52587890625,-0.8388671875,0.177734375
32,1597983237757734,0.2579345703125,0.589599609375,-0.43267822265625,-0.63140869140625,-2.25,1.1875,0.1875,0.51953125,-0.84814453125,0.16650390625
33,1597983237779745,0.25799560546875,0.58935546875,-0.4327392578125,-0.63153076171875,1.125,1.375,0.1875,0.5224609375,-0.84619140625,0.16650390625
34,1597983237795744,0.25823974609375,0.58953857421875,-0.4324951171875,-0.6314697265625,-2.125,0.25,-0.4375,0.51904296875,-0.841796875,0.17041015625
35,1597983237817747,0.25848388671875,0.5897216796875,-0.43218994140625,-0.63134765625,-2.375,0.0625,-0.875,0.521484375,-0.845703125,0.16845703125
36,1597983237840745,0.25848388671875,0.5897216796875,-0.43218994140625,-0.63134765625,-0.75,0.375,-0.875,0.52294921875,-0.83935546875,0.16552734375
37,1597983237855743,0.25848388671875,0.58978271484375,-0.43218994140625,-0.63134765625,-0.25,-0.6875,-0.875,0.52099609375,-0.8388671875,0.16162109375
38,1597983237877734,0.2581787109375,0.5897216796875,-0.43212890625,-0.63153076171875,1.1875,0.0,-1.0625,0.5283203125,-0.83447265625,0.171875
39,1597983237900737,0.258056640625,0.58941650390625,-0.43218994140625,-0.6318359375,1.5625,1.625,-0.375,0.5263671875,-0.83447265625,0.17431640625
40,1597983237920805,0.25830078125,0.589111328125,-0.43218994140625,-0.632080078125,0.4375,2.6875,0.3125,0.5185546875,-0.8447265625,0.17041015625
41,1597983237936806,0.25848388671875,0.58941650390625,-0.43206787109375,-0.6317138671875,-2.0625,-1.4375,-0.1875,0.51904296875,-0.85107421875,0.1640625
42,1597983237959810,0.25848388671875,0.58941650390625,-0.43206787109375,-0.63177490234375,-0.75,-0.125,0.4375,0.52783203125,-0.84765625,0.181640625
43,1597983237980809,0.258544921875,0.58929443359375,-0.43206787109375,-0.6318359375,0.5625,1.1875,0.8125,0.52734375,-0.83544921875,0.16650390625
44,1597983237996808,0.25897216796875,0.5894775390625,-0.4320068359375,-0.63153076171875,-2.75,-0.6875,1.125,0.5205078125,-0.84130859375,0.17333984375
45,1597983238018901,0.2593994140625,0.58978271484375,-0.43182373046875,-0.6312255859375,-3.375,-1.125,0.5625,0.51611328125,-0.84765625,0.17138671875
46,1597983238040895,0.259521484375,0.590087890625,-0.43170166015625,-0.63092041015625,-1.75,-1.3125,0.1875,0.5205078125,-0.84326171875,0.1611328125
47,1597983238056979,0.259521484375,0.590087890625,-0.43170166015625,-0.6309814453125,0.9375,0.8125,0.5,0.53466796875,-0.8359375,0.17724609375
48,1597983238078980,0.259521484375,0.58978271484375,-0.4317626953125,-0.63116455078125,1.375,2.0,0.75,0.5244140625,-0.82763671875,0.16552734375
49,1597983238093987,0.26007080078125,0.58990478515625,-0.4315185546875,-0.63104248046875,-3.25,0.6875,0.75,0.513671875,-0.8388671875,0.16552734375
50,1597983238116979,0.26031494140625,0.59033203125,-0.43121337890625,-0.6307373046875,-3.0625,-1.1875,-0.6875,0.52001953125,-0.84912109375,0.162109375
51,1597983238138978,0.25982666015625,0.59063720703125,-0.4310302734375,-0.6307373046875,0.625,-1.9375,-2.0625,0.533203125,-0.84033203125,0.1640625
52,1597983238154068,0.25982666015625,0.59063720703125,-0.4310302734375,-0.6307373046875,0.875,-0.625,-0.6875,0.53125,-0.8359375,0.17041015625
53,1597983238177079,0.25982666015625,0.59063720703125,-0.4310302734375,-0.63079833984375,-0.8125,0.625,0.125,0.52490234375,-0.841796875,0.17041015625
54,1597983238199071,0.2601318359375,0.590576171875,-0.430908203125,-0.6307373046875,-1.875,0.875,0.5625,0.51708984375,-0.83544921875,0.17138671875
55,1597983238214078,0.26055908203125,0.59088134765625,-0.4306640625,-0.63043212890625,-3.0625,-0.5625,0.375,0.51806640625,-0.849609375,0.15966796875
56,1597983238237164,0.2606201171875,0.5911865234375,-0.4305419921875,-0.6302490234375,-1.25,-1.125,-0.4375,0.51953125,-0.83837890625,0.158203125
57,1597983238259164,0.2606201171875,0.5911865234375,-0.4305419921875,-0.6302490234375,-0.75,-0.375,-0.4375,0.52587890625,-0.84521484375,0.16845703125
58,1597983238280172,0.26080322265625,0.5911865234375,-0.43048095703125,-0.63018798828125,-1.0625,0.0625,0.3125,0.52099609375,-0.845703125,0.1689453125
59,1597983238297168,0.26080322265625,0.5911865234375,-0.4305419921875,-0.63018798828125,0.3125,0.4375,0.3125,0.51904296875,-0.84912109375,0.166015625
60,1597983238319251,0.26080322265625,0.5911865234375,-0.4305419921875,-0.63018798828125,0.0625,-0.0625,0.125,0.52783203125,-0.84326171875,0.16796875
61,1597983238340260,0.26080322265625,0.5911865234375,-0.4305419921875,-0.63018798828125,-0.875,0.375,0.375,0.5234375,-0.8447265625,0.1650390625
62,1597983238357262,0.26080322265625,0.5911865234375,-0.4305419921875,-0.63018798828125,0.125,0.1875,0.4375,0.51953125,-0.8466796875,0.162109375
63,1597983238379252,0.26080322265625,0.5911865234375,-0.4305419921875,-0.6302490234375,0.75,0.4375,0.4375,0.52490234375,-0.84423828125,0.173828125
64,1597983238400259,0.26080322265625,0.59112548828125,-0.4305419921875,-0.6302490234375,0.5,0.4375,0.625,0.5205078125,-0.82958984375,0.169921875
65,1597983238417260,0.26080322265625,0.59112548828125,-0.4305419921875,-0.6302490234375,0.0,0.0,0.5,0.52587890625,-0.85009765625,0.1689453125
66,1597983238439251,0.26080322265625,0.59088134765625,-0.4306640625,-0.63037109375,1.375,1.1875,0.625,0.5244140625,-0.845703125,0.162109375
67,1597983238460260,0.26080322265625,0.5906982421875,-0.4307861328125,-0.6304931640625,1.4375,1.3125,0.625,0.52587890625,-0.84326171875,0.15869140625
68,1597983238477339,0.26080322265625,0.59051513671875,-0.43084716796875,-0.630615234375,1.5625,1.25,0.375,0.5263671875,-0.84228515625,0.1572265625
69,1597983238499347,0.2608642578125,0.590087890625,-0.4310302734375,-0.630859375,1.6875,2.6875,0.75,0.5205078125,-0.84033203125,0.16552734375
70,1597983238520336,0.26104736328125,0.58941650390625,-0.43121337890625,-0.63128662109375,1.9375,3.5625,1.0,0.51904296875,-0.84130859375,0.177734375
71,1597983238537336,0.26123046875,0.58880615234375,-0.43121337890625,-0.63177490234375,0.375,3.625,0.625,0.51953125,-0.83642578125,0.1845703125
72,1597983238559340,0.2615966796875,0.58837890625,-0.4312744140625,-0.6319580078125,-0.5625,2.25,0.75,0.5126953125,-0.8447265625,0.18603515625
73,1597983238580345,0.26202392578125,0.5885009765625,-0.43096923828125,-0.6318359375,-3.1875,0.5,0.5625,0.51513671875,-0.8408203125,0.1708984375
74,1597983238597339,0.26226806640625,0.58868408203125,-0.43084716796875,-0.6317138671875,-1.6875,-0.3125,0.125,0.51806640625,-0.8486328125,0.1689453125
75,1597983238619436,0.26226806640625,0.58868408203125,-0.43084716796875,-0.6317138671875,-0.625,-0.875,0.1875,0.5224609375,-0.84375,0.16357421875
76,1597983238640436,0.26226806640625,0.58868408203125,-0.43084716796875,-0.6317138671875,-0.1875,-0.9375,0.25,0.51904296875,-0.84619140625,0.16845703125
77,1597983238657432,0.2620849609375,0.588623046875,-0.43109130859375,-0.6317138671875,1.9375,-0.3125,-0.1875,0.51904296875,-0.8544921875,0.1669921875
78,1597983238679430,0.26177978515625,0.5885009765625,-0.43133544921875,-0.6317138671875,2.75,-0.5625,-0.375,0.5205078125,-0.85107421875,0.16455078125
79,1597983238700531,0.26141357421875,0.58819580078125,-0.4317626953125,-0.6319580078125,3.375,0.125,-0.1875,0.51806640625,-0.845703125,0.177734375
80,1597983238716545,0.2611083984375,0.58795166015625,-0.43194580078125,-0.632080078125,2.125,0.1875,0.125,0.5263671875,-0.84326171875,0.1796875
81,1597983238739524,0.2611083984375,0.587890625,-0.43206787109375,-0.632080078125,1.0625,0.0625,-0.125,0.5126953125,-0.84521484375,0.16748046875
82,1597983238761529,0.26092529296875,0.587646484375,-0.43218994140625,-0.63232421875,1.1875,0.6875,-0.5625,0.5205078125,-0.84326171875,0.18359375
83,1597983238776528,0.2608642578125,0.587646484375,-0.43218994140625,-0.63232421875,0.75,0.1875,0.0,0.525390625,-0.83837890625,0.1806640625
84,1597983238799524,0.26104736328125,0.58782958984375,-0.4320068359375,-0.6322021484375,-1.625,-0.5,0.375,0.52001953125,-0.8388671875,0.16796875
85,1597983238821524,0.26129150390625,0.587890625,-0.43194580078125,-0.632080078125,-1.625,0.125,0.3125,0.52197265625,-0.84716796875,0.17578125
86,1597983238836521,0.26129150390625,0.587890625,-0.43194580078125,-0.632080078125,0.125,0.1875,0.0625,0.51904296875,-0.8466796875,0.16796875
87,1597983238859521,0.26123046875,0.58770751953125,-0.43206787109375,-0.63226318359375,1.875,0.9375,0.25,0.52392578125,-0.84912109375,0.16943359375
88,1597983238881523,0.26092529296875,0.58734130859375,-0.43243408203125,-0.63238525390625,2.9375,0.25,0.4375,0.52392578125,-0.8486328125,0.18310546875
89,1597983238896529,0.2607421875,0.58709716796875,-0.4327392578125,-0.632568359375,2.4375,0.4375,0.375,0.52294921875,-0.8466796875,0.1748046875
90,1597983238919521,0.2606201171875,0.58673095703125,-0.43292236328125,-0.6328125,2.25,1.5,0.4375,0.52490234375,-0.845703125,0.1806640625
91,1597983238941529,0.2606201171875,0.5870361328125,-0.43328857421875,-0.63226318359375,-0.4375,-3.5625,1.6875,0.505859375,-0.841796875,0.1748046875
92,1597983238956529,0.260009765625,0.5880126953125,-0.43402099609375,-0.63104248046875,0.5625,-10.3125,1.5625,0.51171875,-0.84716796875,0.17041015625
93,1597983238979524,0.25927734375,0.588623046875,-0.4346923828125,-0.63037109375,3.0625,-6.8125,1.3125,0.53271484375,-0.84228515625,0.1611328125
94,1597983239001603,0.2589111328125,0.5880126953125,-0.435302734375,-0.63067626953125,4.5,1.25,1.75,0.52587890625,-0.8427734375,0.1845703125
95,1597983239016612,0.25946044921875,0.587646484375,-0.43524169921875,-0.63079833984375,-1.375,2.875,2.1875,0.51708984375,-0.8359375,0.1787109375
96,1597983239039706,0.26007080078125,0.58770751953125,-0.43511962890625,-0.63055419921875,-2.9375,0.6875,1.25,0.50439453125,-0.83837890625,0.171875
97,1597983239061691,0.26025390625,0.588134765625,-0.4349365234375,-0.6302490234375,-2.1875,-1.5,-0.125,0.51171875,-0.84912109375,0.1630859375
98,1597983239076699,0.259521484375,0.58795166015625,-0.435546875,-0.63031005859375,4.8125,-2.25,-0.4375,0.52001953125,-0.84375,0.1806640625
99,1597983239099793,0.259033203125,0.58770751953125,-0.4359130859375,-0.6304931640625,3.875,-0.25,0.0,0.52587890625,-0.85546875,0.17919921875
100,1597983239121780,0.25885009765625,0.5869140625,-0.4364013671875,-0.6309814453125,5.1875,3.25,0.75,0.5205078125,-0.8505859375,0.173828125
