index,timestamp,orientation_x,orientation_y,orientation_z,orientation_w,gyroscope_x,gyroscope_y,gyroscope_z,acceleration_x,acceleration_y,acceleration_z
0,1597981858037431,-0.16912841796875,0.3065185546875,-0.8394775390625,0.4156494140625,2.0625,-3.25,3.8125,0.0341796875,-0.67626953125,0.77587890625
1,1597981858056441,-0.16900634765625,0.305908203125,-0.83929443359375,0.41644287109375,3.625,-2.125,4.0,0.03662109375,-0.67236328125,0.7744140625
2,1597981858075433,-0.16845703125,0.30548095703125,-0.8392333984375,0.4171142578125,4.0625,0.5,4.125,0.0302734375,-0.67431640625,0.7734375
3,1597981858097456,-0.1678466796875,0.305419921875,-0.83905029296875,0.41778564453125,2.9375,0.9375,4.3125,0.01806640625,-0.671875,0.76220703125
4,1597981858124435,-0.1676025390625,0.30560302734375,-0.8387451171875,0.41839599609375,0.5625,0.0,3.625,0.01806640625,-0.67578125,0.763671875
5,1597981858134434,-0.16748046875,0.30572509765625,-0.83843994140625,0.41888427734375,0.125,-0.9375,3.0,0.0146484375,-0.68212890625,0.7783203125
6,1597981858157450,-0.1673583984375,0.3055419921875,-0.83837890625,0.419189453125,1.4375,-0.625,1.5,0.02099609375,-0.671875,0.775390625
7,1597981858176439,-0.1673583984375,0.3055419921875,-0.83837890625,0.419189453125,0.6875,0.125,0.125,0.02587890625,-0.6591796875,0.77490234375
8,1597981858194433,-0.1673583984375,0.30584716796875,-0.83831787109375,0.41912841796875,-2.125,0.875,0.0625,0.02587890625,-0.6611328125,0.77001953125
9,1597981858217461,-0.16741943359375,0.30645751953125,-0.83807373046875,0.4190673828125,-3.875,0.75,0.75,0.021484375,-0.6669921875,0.77783203125
10,1597981858236439,-0.16754150390625,0.306884765625,-0.837890625,0.41912841796875,-2.5625,0.4375,0.75,0.02587890625,-0.67822265625,0.78076171875
11,1597981858254431,-0.16754150390625,0.306884765625,-0.837890625,0.41912841796875,0.125,-0.1875,0.4375,0.02197265625,-0.67578125,0.779296875
12,1597981858277462,-0.16729736328125,0.3062744140625,-0.838134765625,0.41925048828125,3.0625,-0.1875,0.125,0.025390625,-0.66259765625,0.78955078125
13,1597981858297524,-0.16680908203125,0.3052978515625,-0.83856201171875,0.4193115234375,4.5625,0.1875,-0.4375,0.03076171875,-0.65673828125,0.8076171875
14,1597981858314519,-0.1671142578125,0.3046875,-0.83856201171875,0.41961669921875,1.1875,-3.3125,0.1875,0.02392578125,-0.6640625,0.80224609375
15,1597981858336518,-0.16754150390625,0.30419921875,-0.8385009765625,0.41998291015625,0.1875,-3.8125,0.75,0.02685546875,-0.634765625,0.77001953125
16,1597981858357528,-0.168212890625,0.30462646484375,-0.83843994140625,0.41943359375,-7.5,-0.75,-2.3125,0.041015625,-0.6328125,0.80029296875
17,1597981858373616,-0.16925048828125,0.30670166015625,-0.83795166015625,0.41845703125,-18.0,1.3125,-3.5,0.02734375,-0.6376953125,0.81298828125
18,1597981858396627,-0.17041015625,0.31060791015625,-0.8370361328125,0.41693115234375,-24.0625,4.375,-4.4375,0.0078125,-0.671875,0.748046875
19,1597981858417618,-0.17236328125,0.3148193359375,-0.8359375,0.41522216796875,-27.6875,1.75,-5.375,0.01123046875,-0.70263671875,0.75634765625
20,1597981858439618,-0.1739501953125,0.31787109375,-0.83489990234375,0.41436767578125,-18.3125,0.375,-1.8125,0.02783203125,-0.73779296875,0.75048828125
21,1597981858455617,-0.1744384765625,0.3184814453125,-0.83502197265625,0.4134521484375,-5.6875,2.0625,-3.75,0.05078125,-0.70166015625,0.77783203125
22,1597981858477623,-0.174072265625,0.318603515625,-0.83575439453125,0.4119873046875,-0.5,6.1875,-7.0625,0.0478515625,-0.67333984375,0.748046875
23,1597981858494620,-0.1741943359375,0.3203125,-0.835693359375,0.41070556640625,-10.0,4.6875,-5.4375,0.00732421875,-0.67919921875,0.7353515625
24,1597981858515722,-0.1754150390625,0.32305908203125,-0.83489990234375,0.40972900390625,-17.5,1.6875,-2.5625,0.0283203125,-0.70166015625,0.7314453125
25,1597981858536711,-0.17681884765625,0.32550048828125,-0.8341064453125,0.4088134765625,-16.1875,0.3125,-2.25,0.03759765625,-0.72265625,0.734375
26,1597981858553704,-0.17767333984375,0.3267822265625,-0.8336181640625,0.4083251953125,-7.125,-0.375,-1.5,0.03271484375,-0.75390625,0.74267578125
27,1597981858575711,-0.177734375,0.32647705078125,-0.83380126953125,0.408203125,1.25,-0.4375,-0.8125,0.0390625,-0.7041015625,0.7392578125
28,1597981858597702,-0.177734375,0.326416015625,-0.83380126953125,0.408203125,0.5,-0.375,-0.125,0.0302734375,-0.697265625,0.75048828125
29,1597981858613703,-0.177734375,0.326416015625,-0.83380126953125,0.408203125,-0.875,-0.0625,0.0,0.03955078125,-0.69873046875,0.73291015625
30,1597981858636702,-0.1781005859375,0.32708740234375,-0.8336181640625,0.407958984375,-4.75,0.3125,-0.8125,0.02978515625,-0.7060546875,0.73974609375
31,1597981858658706,-0.17840576171875,0.3277587890625,-0.833251953125,0.40789794921875,-3.8125,-0.5,0.4375,0.02783203125,-0.72509765625,0.73681640625
32,1597981858673710,-0.17877197265625,0.327880859375,-0.83306884765625,0.4080810546875,-1.0625,-1.75,0.75,0.03369140625,-0.7177734375,0.73681640625
33,1597981858695705,-0.17901611328125,0.3277587890625,-0.8330078125,0.408203125,-0.125,-2.0,0.25,0.0322265625,-0.7138671875,0.74658203125
34,1597981858718706,-0.1790771484375,0.327392578125,-0.8331298828125,0.4083251953125,1.25,-1.25,-0.25,0.02978515625,-0.703125,0.74609375
35,1597981858733703,-0.17913818359375,0.3272705078125,-0.83306884765625,0.40838623046875,-0.8125,-1.1875,-0.5,0.01904296875,-0.69677734375,0.7470703125
36,1597981858763706,-0.17962646484375,0.327392578125,-0.8330078125,0.408203125,-2.8125,-1.9375,-1.3125,0.0341796875,-0.70556640625,0.75390625
37,1597981858778703,-0.18035888671875,0.32745361328125,-0.83294677734375,0.407958984375,-3.0625,-2.3125,-1.6875,0.04736328125,-0.705078125,0.7470703125
38,1597981858792705,-0.18060302734375,0.32763671875,-0.83282470703125,0.407958984375,-2.5,-1.25,-0.625,0.02783203125,-0.708984375,0.75048828125
39,1597981858816703,-0.18109130859375,0.32769775390625,-0.8328857421875,0.40765380859375,-2.4375,-1.3125,-2.0,0.03759765625,-0.697265625,0.73779296875
40,1597981858838810,-0.18182373046875,0.32818603515625,-0.83270263671875,0.4072265625,-5.1875,-1.3125,-2.125,0.04443359375,-0.7080078125,0.7353515625
41,1597981858852810,-0.18267822265625,0.3287353515625,-0.8323974609375,0.406982421875,-4.9375,-2.4375,-1.25,0.0439453125,-0.71875,0.73046875
42,1597981858875811,-0.183349609375,0.328857421875,-0.832275390625,0.40692138671875,-1.9375,-2.625,-1.125,0.04052734375,-0.720703125,0.7353515625
43,1597981858898821,-0.1834716796875,0.3284912109375,-0.83233642578125,0.406982421875,0.8125,-1.6875,-0.6875,0.03759765625,-0.7119140625,0.7421875
44,1597981858912895,-0.18359375,0.32830810546875,-0.83245849609375,0.4068603515625,-0.375,-0.8125,-1.125,0.03759765625,-0.7001953125,0.7421875
45,1597981858935986,-0.183837890625,0.32861328125,-0.83233642578125,0.40673828125,-2.625,-0.25,-0.3125,0.04248046875,-0.70849609375,0.73291015625
46,1597981858958979,-0.18402099609375,0.32904052734375,-0.8321533203125,0.40673828125,-2.125,-0.0625,0.25,0.03466796875,-0.72412109375,0.72802734375
47,1597981858972976,-0.1839599609375,0.328857421875,-0.8321533203125,0.4068603515625,1.75,-0.5625,0.4375,0.0400390625,-0.72705078125,0.73779296875
48,1597981858995975,-0.18353271484375,0.3280029296875,-0.83245849609375,0.4071044921875,5.3125,-0.1875,0.25,0.0361328125,-0.71533203125,0.74658203125
49,1597981859018984,-0.18310546875,0.3271484375,-0.83282470703125,0.40728759765625,4.875,0.125,-0.0625,0.04052734375,-0.69287109375,0.740234375
50,1597981859032987,-0.18292236328125,0.3267822265625,-0.8330078125,0.4072265625,1.0625,0.625,-0.25,0.0458984375,-0.69189453125,0.74267578125
51,1597981859055978,-0.18292236328125,0.32708740234375,-0.83294677734375,0.4072265625,-1.9375,0.4375,0.375,0.0400390625,-0.71142578125,0.73974609375
52,1597981859078978,-0.18292236328125,0.32708740234375,-0.8328857421875,0.4072265625,-0.8125,-0.375,0.5625,0.03759765625,-0.7216796875,0.74365234375
53,1597981859093984,-0.18280029296875,0.32684326171875,-0.8330078125,0.4073486328125,1.875,-0.0625,0.4375,0.041015625,-0.71240234375,0.73779296875
54,1597981859115975,-0.18255615234375,0.32647705078125,-0.8331298828125,0.407470703125,2.625,0.0,0.375,0.03759765625,-0.7080078125,0.734375
55,1597981859138979,-0.18231201171875,0.3260498046875,-0.83331298828125,0.40753173828125,2.9375,0.3125,0.0625,0.041015625,-0.70751953125,0.73974609375
56,1597981859159984,-0.18212890625,0.3255615234375,-0.83355712890625,0.40753173828125,2.6875,0.4375,-0.4375,0.04443359375,-0.701171875,0.74267578125
57,1597981859175978,-0.18212890625,0.32550048828125,-0.83355712890625,0.40753173828125,0.0625,0.5625,-0.125,0.0419921875,-0.7001953125,0.7451171875
58,1597981859198978,-0.18212890625,0.32568359375,-0.83349609375,0.407470703125,-1.3125,0.4375,0.125,0.0400390625,-0.70751953125,0.7421875
59,1597981859220064,-0.18212890625,0.325927734375,-0.83343505859375,0.407470703125,-1.375,0.4375,0.0625,0.03515625,-0.7138671875,0.744140625
60,1597981859236054,-0.1820068359375,0.3258056640625,-0.83349609375,0.407470703125,1.0625,0.125,0.0,0.03759765625,-0.7099609375,0.740234375
61,1597981859259065,-0.1817626953125,0.3251953125,-0.833740234375,0.40753173828125,3.375,0.0625,-0.3125,0.0439453125,-0.7041015625,0.7451171875
62,1597981859280064,-0.181640625,0.32489013671875,-0.8338623046875,0.40753173828125,1.1875,0.0625,-0.3125,0.0390625,-0.7001953125,0.74755859375
63,1597981859296063,-0.181640625,0.32489013671875,-0.8338623046875,0.40753173828125,-0.75,-0.0625,0.1875,0.03466796875,-0.701171875,0.73828125
64,1597981859319064,-0.18182373046875,0.3251953125,-0.833740234375,0.40753173828125,-2.125,-0.5625,0.125,0.03662109375,-0.70361328125,0.73779296875
65,1597981859340062,-0.18182373046875,0.3251953125,-0.833740234375,0.40753173828125,-0.9375,-0.4375,0.1875,0.0458984375,-0.71044921875,0.7392578125
66,1597981859356056,-0.18182373046875,0.32513427734375,-0.833740234375,0.40753173828125,0.0625,-0.125,0.125,0.044921875,-0.7109375,0.74658203125
67,1597981859379064,-0.18170166015625,0.3248291015625,-0.83392333984375,0.4075927734375,2.0625,0.125,0.1875,0.04345703125,-0.70703125,0.7470703125
68,1597981859400129,-0.18170166015625,0.32476806640625,-0.83392333984375,0.4075927734375,0.75,0.0,-0.125,0.0380859375,-0.7021484375,0.73876953125
69,1597981859416128,-0.181884765625,0.324951171875,-0.8338623046875,0.407470703125,-1.25,-0.0625,-0.25,0.0458984375,-0.7060546875,0.736328125
70,1597981859438125,-0.18206787109375,0.3251953125,-0.833740234375,0.40740966796875,-2.125,-0.1875,-0.375,0.03955078125,-0.71240234375,0.74560546875
71,1597981859460126,-0.18218994140625,0.3253173828125,-0.83367919921875,0.40740966796875,-1.1875,-0.6875,0.0625,0.03564453125,-0.7099609375,0.74169921875
72,1597981859476127,-0.18218994140625,0.3253173828125,-0.83367919921875,0.40740966796875,-0.9375,-0.4375,-0.5625,0.03955078125,-0.7060546875,0.74560546875
73,1597981859498134,-0.18218994140625,0.3253173828125,-0.83367919921875,0.40740966796875,-0.875,-0.125,0.0,0.03759765625,-0.712890625,0.7421875
74,1597981859520129,-0.18212890625,0.3253173828125,-0.83367919921875,0.40740966796875,0.125,-0.0625,0.125,0.0361328125,-0.70947265625,0.74609375
75,1597981859536136,-0.18212890625,0.3253173828125,-0.83367919921875,0.40740966796875,0.6875,-0.0625,-0.125,0.03564453125,-0.70556640625,0.74609375
76,1597981859559130,-0.18212890625,0.3253173828125,-0.83367919921875,0.40740966796875,0.25,0.0625,-0.1875,0.04296875,-0.70263671875,0.74462890625
77,1597981859580129,-0.18212890625,0.32525634765625,-0.83367919921875,0.40740966796875,-0.5,-0.4375,-0.0625,0.04052734375,-0.70458984375,0.74609375
78,1597981859596129,-0.18243408203125,0.325439453125,-0.83355712890625,0.407470703125,-1.9375,-1.3125,0.1875,0.041015625,-0.705078125,0.73828125
79,1597981859619127,-0.18292236328125,0.32568359375,-0.83331298828125,0.40753173828125,-3.3125,-1.75,0.625,0.04345703125,-0.70068359375,0.740234375
80,1597981859641127,-0.18316650390625,0.3258056640625,-0.8331298828125,0.40771484375,-1.25,-1.1875,0.875,0.044921875,-0.7158203125,0.74609375
81,1597981859656127,-0.18310546875,0.3255615234375,-0.8331298828125,0.4078369140625,1.0,-0.5625,0.4375,0.03857421875,-0.7099609375,0.74609375
82,1597981859679127,-0.18310546875,0.3255615234375,-0.83319091796875,0.4078369140625,0.875,-0.3125,-0.125,0.048828125,-0.69970703125,0.7412109375
83,1597981859701128,-0.18316650390625,0.32574462890625,-0.83306884765625,0.40789794921875,-1.75,-0.1875,0.375,0.041015625,-0.70166015625,0.73779296875
84,1597981859715127,-0.18341064453125,0.32611083984375,-0.8328857421875,0.4078369140625,-2.5625,-0.1875,0.25,0.0419921875,-0.71630859375,0.7373046875
85,1597981859739130,-0.18341064453125,0.32611083984375,-0.8328857421875,0.4078369140625,-0.8125,-0.375,-0.4375,0.04443359375,-0.71533203125,0.74365234375
86,1597981859761200,-0.183349609375,0.32586669921875,-0.8330078125,0.4078369140625,1.5625,-0.1875,-0.125,0.0439453125,-0.71044921875,0.73974609375
87,1597981859775201,-0.183349609375,0.3258056640625,-0.8330078125,0.4078369140625,0.5625,0.125,-0.3125,0.04248046875,-0.70068359375,0.736328125
88,1597981859798198,-0.1834716796875,0.32598876953125,-0.83294677734375,0.40777587890625,-1.375,0.0625,0.0,0.04052734375,-0.708984375,0.73828125
89,1597981859821202,-0.1834716796875,0.3260498046875,-0.83294677734375,0.40777587890625,-0.875,0.4375,0.0625,0.0390625,-0.71533203125,0.736328125
90,1597981859835198,-0.1834716796875,0.32598876953125,-0.83294677734375,0.40777587890625,0.4375,0.75,-0.1875,0.044921875,-0.71044921875,0.74365234375
91,1597981859859200,-0.1834716796875,0.32598876953125,-0.83294677734375,0.40777587890625,0.5625,0.0625,-0.4375,0.0390625,-0.70703125,0.74169921875
92,1597981859881202,-0.1834716796875,0.32598876953125,-0.83294677734375,0.40777587890625,0.125,0.3125,-0.4375,0.046875,-0.7021484375,0.74560546875
93,1597981859895198,-0.1834716796875,0.3260498046875,-0.83294677734375,0.40771484375,-1.125,0.25,-0.125,0.041015625,-0.70654296875,0.74169921875
94,1597981859918990,-0.1834716796875,0.3260498046875,-0.83294677734375,0.40771484375,-0.75,-0.0625,0.0,0.04052734375,-0.71044921875,0.73974609375
95,1597981859940991,-0.1834716796875,0.3260498046875,-0.83294677734375,0.40771484375,0.3125,0.0625,-0.3125,0.04296875,-0.70556640625,0.74365234375
96,1597981859954982,-0.1834716796875,0.3260498046875,-0.83294677734375,0.40771484375,-0.625,0.625,-0.375,0.04248046875,-0.7060546875,0.74267578125
97,1597981859978990,-0.1834716796875,0.3260498046875,-0.83294677734375,0.40771484375,-0.125,0.5,-0.3125,0.04150390625,-0.70849609375,0.7392578125
98,1597981860000985,-0.1834716796875,0.32598876953125,-0.83294677734375,0.40771484375,-0.875,-0.0625,-0.375,0.0380859375,-0.70654296875,0.74169921875
99,1597981860014989,-0.1834716796875,0.32598876953125,-0.83294677734375,0.40771484375,-1.0,-0.375,0.0,0.0439453125,-0.70751953125,0.73876953125
100,1597981860038981,-0.18353271484375,0.32623291015625,-0.8328857421875,0.40771484375,-1.5625,-0.1875,-0.0625,0.037109375,-0.71337890625,0.74267578125
