index,timestamp,orientation_x,orientation_y,orientation_z,orientation_w,gyroscope_x,gyroscope_y,gyroscope_z,acceleration_x,acceleration_y,acceleration_z
0,1597981873778542,-0.17144775390625,0.31170654296875,-0.83807373046875,0.41363525390625,0.625,-0.4375,2.625,0.0205078125,-0.6865234375,0.76318359375
1,1597981873799553,-0.1712646484375,0.31158447265625,-0.83795166015625,0.41400146484375,1.6875,-0.1875,2.125,0.0263671875,-0.68994140625,0.7607421875
2,1597981873817551,-0.1710205078125,0.31134033203125,-0.83795166015625,0.414306640625,1.75,0.0,1.5,0.02734375,-0.68310546875,0.7744140625
3,1597981873839543,-0.170654296875,0.31085205078125,-0.83807373046875,0.41455078125,2.75,0.0,1.1875,0.03125,-0.67529296875,0.783203125
4,1597981873859555,-0.17034912109375,0.310546875,-0.83819580078125,0.41473388671875,1.6875,0.5,0.5,0.02197265625,-0.67041015625,0.7734375
5,1597981873877551,-0.1702880859375,0.310791015625,-0.83807373046875,0.41473388671875,-1.875,0.25,0.375,0.021484375,-0.67041015625,0.771484375
6,1597981873899544,-0.1705322265625,0.31134033203125,-0.83782958984375,0.414794921875,-4.25,-0.375,0.6875,0.02734375,-0.6796875,0.7763671875
7,1597981873919561,-0.17071533203125,0.3116455078125,-0.83758544921875,0.4149169921875,-2.1875,-0.6875,1.125,0.02587890625,-0.6904296875,0.77783203125
8,1597981873937551,-0.1707763671875,0.31134033203125,-0.83758544921875,0.41522216796875,1.8125,-1.4375,1.1875,0.03271484375,-0.6904296875,0.7724609375
9,1597981873959544,-0.17047119140625,0.3104248046875,-0.8377685546875,0.41558837890625,5.1875,-0.875,1.4375,0.03515625,-0.6787109375,0.7783203125
10,1597981873979542,-0.17010498046875,0.30950927734375,-0.8380126953125,0.416015625,4.9375,-0.6875,1.5,0.03369140625,-0.6630859375,0.7822265625
11,1597981873996551,-0.16998291015625,0.30889892578125,-0.83807373046875,0.4163818359375,2.0625,-1.1875,1.4375,0.03173828125,-0.6572265625,0.77880859375
12,1597981874019544,-0.170166015625,0.30902099609375,-0.83782958984375,0.41668701171875,-1.25,-1.1875,1.75,0.03369140625,-0.6728515625,0.76953125
13,1597981874039549,-0.17047119140625,0.30938720703125,-0.8375244140625,0.41693115234375,-2.75,-1.25,1.8125,0.02880859375,-0.6826171875,0.76806640625
14,1597981874057551,-0.170654296875,0.30963134765625,-0.83721923828125,0.417236328125,-1.25,-1.375,1.75,0.0224609375,-0.68212890625,0.76611328125
15,1597981874079545,-0.170654296875,0.30963134765625,-0.83721923828125,0.417236328125,0.4375,-0.9375,0.6875,0.029296875,-0.68701171875,0.76806640625
16,1597981874099559,-0.17071533203125,0.30908203125,-0.8372802734375,0.41748046875,2.0625,-2.0625,0.3125,0.02685546875,-0.67919921875,0.78466796875
17,1597981874117551,-0.171142578125,0.308349609375,-0.8372802734375,0.41790771484375,2.5,-4.6875,0.75,0.0263671875,-0.68505859375,0.79150390625
18,1597981874139543,-0.17169189453125,0.3070068359375,-0.83746337890625,0.4183349609375,5.125,-5.625,0.0,0.04736328125,-0.65966796875,0.7705078125
19,1597981874159609,-0.171142578125,0.30548095703125,-0.8382568359375,0.41796875,5.6875,1.875,-2.875,0.06201171875,-0.6328125,0.81494140625
20,1597981874177607,-0.17059326171875,0.30609130859375,-0.838623046875,0.4169921875,-6.125,4.375,-5.1875,0.00146484375,-0.6064453125,0.7861328125
21,1597981874199610,-0.17181396484375,0.30926513671875,-0.8380126953125,0.41534423828125,-23.6875,4.3125,-5.1875,0.03564453125,-0.64013671875,0.78173828125
22,1597981874219612,-0.17425537109375,0.31396484375,-0.83660888671875,0.4136962890625,-33.3125,2.0,-3.1875,0.05419921875,-0.67822265625,0.77197265625
23,1597981874236616,-0.17626953125,0.31884765625,-0.83502197265625,0.41229248046875,-31.375,2.5,-2.1875,0.025390625,-0.71533203125,0.74951171875
24,1597981874259610,-0.177978515625,0.32281494140625,-0.8338623046875,0.41082763671875,-25.0,2.75,-3.625,0.033203125,-0.73974609375,0.751953125
25,1597981874279615,-0.17877197265625,0.32464599609375,-0.83367919921875,0.409423828125,-10.75,4.3125,-4.5625,0.05908203125,-0.73095703125,0.7353515625
26,1597981874297608,-0.178955078125,0.3260498046875,-0.8336181640625,0.408447265625,-6.6875,4.3125,-3.375,0.03271484375,-0.71484375,0.71337890625
27,1597981874318697,-0.17962646484375,0.3280029296875,-0.8330078125,0.40777587890625,-11.125,1.125,-1.6875,0.02001953125,-0.72021484375,0.71435546875
28,1597981874339704,-0.180419921875,0.32928466796875,-0.83251953125,0.40728759765625,-7.0,-0.3125,-1.5625,0.0283203125,-0.74267578125,0.71923828125
29,1597981874356698,-0.18060302734375,0.3292236328125,-0.83245849609375,0.40753173828125,0.375,-1.875,0.5,0.0302734375,-0.73291015625,0.74462890625
30,1597981874378698,-0.1805419921875,0.328369140625,-0.8326416015625,0.4078369140625,5.125,-2.5,-0.125,0.02734375,-0.71142578125,0.73388671875
31,1597981874399703,-0.1802978515625,0.3272705078125,-0.8330078125,0.40802001953125,5.8125,-1.25,-0.5625,0.0341796875,-0.705078125,0.75244140625
32,1597981874415791,-0.17999267578125,0.32635498046875,-0.83355712890625,0.4078369140625,3.4375,0.4375,-2.0,0.0439453125,-0.68017578125,0.7568359375
33,1597981874438781,-0.18023681640625,0.3270263671875,-0.83343505859375,0.40740966796875,-5.1875,0.5,-2.0,0.0224609375,-0.6865234375,0.73095703125
34,1597981874459790,-0.1810302734375,0.3282470703125,-0.83306884765625,0.40679931640625,-8.9375,-0.1875,-2.5625,0.03173828125,-0.71240234375,0.73779296875
35,1597981874475792,-0.181884765625,0.3292236328125,-0.832763671875,0.40618896484375,-7.0,-0.625,-2.4375,0.04638671875,-0.732421875,0.72998046875
36,1597981874498848,-0.18218994140625,0.32952880859375,-0.83270263671875,0.40594482421875,-1.125,-0.4375,-1.25,0.03662109375,-0.740234375,0.732421875
37,1597981874519858,-0.18194580078125,0.32879638671875,-0.8331298828125,0.40582275390625,4.6875,0.25,-1.8125,0.0380859375,-0.71533203125,0.73486328125
38,1597981874536086,-0.18170166015625,0.32794189453125,-0.8336181640625,0.40557861328125,4.25,0.8125,-2.375,0.04736328125,-0.6962890625,0.74169921875
39,1597981874559083,-0.181640625,0.32781982421875,-0.8338623046875,0.4052734375,-0.1875,1.125,-1.375,0.04638671875,-0.69140625,0.74072265625
40,1597981874580174,-0.18212890625,0.3280029296875,-0.83367919921875,0.4052734375,-4.125,-2.75,-1.0,0.0283203125,-0.7001953125,0.7587890625
41,1597981874596161,-0.1837158203125,0.3287353515625,-0.83306884765625,0.40521240234375,-8.5,-6.4375,-1.125,0.0380859375,-0.70703125,0.72998046875
42,1597981874619190,-0.1849365234375,0.32928466796875,-0.83258056640625,0.4052734375,-6.375,-4.5625,0.3125,0.05419921875,-0.7275390625,0.73779296875
43,1597981874640169,-0.185302734375,0.32916259765625,-0.83245849609375,0.40533447265625,-1.0625,-1.8125,0.3125,0.05078125,-0.71826171875,0.748046875
44,1597981874656165,-0.18536376953125,0.32952880859375,-0.83233642578125,0.40533447265625,-2.3125,-0.5,-0.4375,0.02734375,-0.70947265625,0.72802734375
45,1597981874679186,-0.185791015625,0.33013916015625,-0.83209228515625,0.4051513671875,-3.75,-0.9375,-0.625,0.03466796875,-0.7265625,0.72216796875
46,1597981874700262,-0.185791015625,0.3302001953125,-0.83203125,0.4051513671875,-0.6875,-0.5625,-0.8125,0.03955078125,-0.73876953125,0.72900390625
47,1597981874716332,-0.18560791015625,0.32958984375,-0.83233642578125,0.40509033203125,4.1875,0.5,-0.9375,0.05322265625,-0.7236328125,0.7265625
48,1597981874738334,-0.18511962890625,0.32879638671875,-0.83282470703125,0.405029296875,5.125,1.5625,-0.625,0.05029296875,-0.7060546875,0.7373046875
49,1597981874761332,-0.1846923828125,0.32861328125,-0.8330078125,0.40496826171875,1.5,1.9375,-0.5,0.0390625,-0.69775390625,0.7275390625
50,1597981874776332,-0.1845703125,0.3291015625,-0.8330078125,0.4046630859375,-2.9375,1.9375,-0.6875,0.04345703125,-0.70751953125,0.73583984375
51,1597981874798341,-0.1846923828125,0.3297119140625,-0.8328857421875,0.4044189453125,-4.0,1.375,-0.4375,0.04052734375,-0.71728515625,0.734375
52,1597981874821332,-0.1846923828125,0.330078125,-0.83282470703125,0.40423583984375,-1.375,1.0625,-0.125,0.04638671875,-0.724609375,0.7294921875
53,1597981874836332,-0.18438720703125,0.32952880859375,-0.83306884765625,0.404296875,3.1875,0.8125,-0.0625,0.04638671875,-0.71630859375,0.74169921875
54,1597981874858340,-0.1839599609375,0.3289794921875,-0.83331298828125,0.4044189453125,3.5625,0.6875,0.375,0.04296875,-0.7080078125,0.736328125
55,1597981874881332,-0.18377685546875,0.32867431640625,-0.83343505859375,0.4044189453125,1.125,0.5625,-0.125,0.0439453125,-0.70703125,0.74755859375
56,1597981874896331,-0.18377685546875,0.32891845703125,-0.83343505859375,0.404296875,-1.875,0.75,-0.0625,0.04296875,-0.70556640625,0.736328125
57,1597981874918338,-0.1839599609375,0.3294677734375,-0.833251953125,0.4041748046875,-3.5625,0.25,-0.0625,0.03955078125,-0.71923828125,0.73828125
58,1597981874941334,-0.1839599609375,0.3294677734375,-0.833251953125,0.4041748046875,-0.4375,0.4375,-0.4375,0.0439453125,-0.72607421875,0.7373046875
59,1597981874955334,-0.1837158203125,0.3291015625,-0.83343505859375,0.40411376953125,2.1875,0.8125,-0.375,0.04443359375,-0.70849609375,0.732421875
60,1597981874978351,-0.1837158203125,0.3291015625,-0.83343505859375,0.40411376953125,0.5625,0.8125,0.1875,0.0380859375,-0.70556640625,0.73291015625
61,1597981875001332,-0.1837158203125,0.3291015625,-0.83343505859375,0.40411376953125,-0.875,0.5,0.5,0.04052734375,-0.71484375,0.73779296875
62,1597981875015332,-0.1837158203125,0.3291015625,-0.83343505859375,0.40411376953125,-0.625,-0.125,0.1875,0.04541015625,-0.71630859375,0.73876953125
63,1597981875038331,-0.1839599609375,0.32904052734375,-0.83343505859375,0.4041748046875,-0.125,-1.625,-0.5625,0.03662109375,-0.71875,0.732421875
64,1597981875061418,-0.1842041015625,0.32861328125,-0.83349609375,0.4041748046875,0.8125,-1.75,-0.875,0.04638671875,-0.70361328125,0.7373046875
65,1597981875083425,-0.18450927734375,0.32861328125,-0.83349609375,0.40411376953125,-1.375,-1.1875,-0.4375,0.046875,-0.705078125,0.73486328125
66,1597981875098422,-0.184814453125,0.328857421875,-0.833251953125,0.4041748046875,-2.25,-0.9375,0.75,0.05029296875,-0.71484375,0.73046875
67,1597981875121416,-0.184814453125,0.328857421875,-0.833251953125,0.4041748046875,-0.0625,0.0,0.9375,0.04736328125,-0.7138671875,0.74365234375
68,1597981875135417,-0.1845703125,0.3287353515625,-0.83331298828125,0.40435791015625,1.25,0.625,0.8125,0.03955078125,-0.716796875,0.73828125
69,1597981875158416,-0.18450927734375,0.3287353515625,-0.83331298828125,0.40435791015625,0.875,0.875,0.0625,0.0390625,-0.7099609375,0.73974609375
70,1597981875181417,-0.18450927734375,0.3287353515625,-0.83331298828125,0.40435791015625,-0.9375,0.375,-0.4375,0.03662109375,-0.71533203125,0.73193359375
71,1597981875195417,-0.1846923828125,0.32879638671875,-0.833251953125,0.404296875,-1.1875,-0.1875,-0.1875,0.0478515625,-0.716796875,0.73876953125
72,1597981875218422,-0.1846923828125,0.32879638671875,-0.83331298828125,0.40423583984375,0.1875,0.25,-0.4375,0.05224609375,-0.71484375,0.73291015625
73,1597981875241416,-0.18438720703125,0.32867431640625,-0.8333740234375,0.40423583984375,1.1875,1.25,0.25,0.044921875,-0.712890625,0.736328125
74,1597981875262506,-0.18414306640625,0.3287353515625,-0.83343505859375,0.40423583984375,-0.25,1.3125,0.1875,0.0390625,-0.70556640625,0.73779296875
75,1597981875279510,-0.1842041015625,0.32916259765625,-0.83331298828125,0.4041748046875,-2.5625,0.5,-0.0625,0.0361328125,-0.71826171875,0.73974609375
76,1597981875301513,-0.18438720703125,0.32940673828125,-0.833251953125,0.40399169921875,-1.875,0.1875,-0.5,0.04638671875,-0.72021484375,0.7373046875
77,1597981875322500,-0.184326171875,0.32940673828125,-0.833251953125,0.40399169921875,-0.625,-0.3125,-0.4375,0.03759765625,-0.71923828125,0.73828125
78,1597981875338498,-0.184326171875,0.32904052734375,-0.83343505859375,0.4039306640625,1.5,0.1875,-0.5625,0.052734375,-0.71337890625,0.736328125
79,1597981875361502,-0.18408203125,0.32879638671875,-0.8336181640625,0.40386962890625,1.25,0.6875,-0.25,0.0439453125,-0.70947265625,0.74267578125
80,1597981875382505,-0.18408203125,0.32879638671875,-0.8336181640625,0.40386962890625,-0.75,0.6875,0.375,0.03955078125,-0.70556640625,0.734375
81,1597981875398514,-0.18414306640625,0.3292236328125,-0.83349609375,0.40374755859375,-2.5625,0.625,-0.125,0.03759765625,-0.71484375,0.734375
82,1597981875421497,-0.1842041015625,0.3294677734375,-0.8333740234375,0.40374755859375,-1.9375,0.0625,0.0,0.0390625,-0.72265625,0.74072265625
83,1597981875442505,-0.1842041015625,0.3294677734375,-0.8333740234375,0.40374755859375,0.5,0.4375,-0.5,0.0400390625,-0.7177734375,0.73828125
84,1597981875458497,-0.1842041015625,0.3294677734375,-0.8333740234375,0.40374755859375,0.9375,0.6875,-0.875,0.04833984375,-0.7080078125,0.7421875
85,1597981875481500,-0.1842041015625,0.32940673828125,-0.8333740234375,0.40374755859375,-0.9375,0.4375,-0.3125,0.0439453125,-0.70849609375,0.732421875
86,1597981875502506,-0.18426513671875,0.32977294921875,-0.83331298828125,0.40362548828125,-2.125,0.5625,0.1875,0.04150390625,-0.71337890625,0.73095703125
87,1597981875518503,-0.184326171875,0.330078125,-0.83319091796875,0.40362548828125,-1.6875,0.125,0.125,0.0361328125,-0.72119140625,0.73486328125
88,1597981875541500,-0.184326171875,0.33001708984375,-0.83319091796875,0.40362548828125,-0.3125,-0.0625,0.0,0.044921875,-0.71484375,0.740234375
89,1597981875562506,-0.18426513671875,0.33001708984375,-0.83319091796875,0.40362548828125,0.625,-0.25,-0.1875,0.037109375,-0.712890625,0.73388671875
90,1597981875578501,-0.18426513671875,0.33001708984375,-0.83319091796875,0.40362548828125,0.125,-0.375,-0.3125,0.04541015625,-0.71240234375,0.7333984375
91,1597981875601506,-0.184326171875,0.33001708984375,-0.83319091796875,0.40362548828125,-0.375,0.25,-0.375,0.052734375,-0.712890625,0.73193359375
92,1597981875623498,-0.184326171875,0.33001708984375,-0.83319091796875,0.40362548828125,-0.25,0.125,0.5625,0.03662109375,-0.71728515625,0.73095703125
93,1597981875639511,-0.18426513671875,0.33001708984375,-0.83319091796875,0.40362548828125,-0.25,-0.125,0.1875,0.03466796875,-0.7158203125,0.73779296875
94,1597981875661506,-0.184326171875,0.33001708984375,-0.83319091796875,0.40362548828125,0.5,0.0625,-0.5,0.05029296875,-0.7119140625,0.72998046875
95,1597981875682506,-0.184326171875,0.3299560546875,-0.83319091796875,0.40362548828125,-0.75,0.3125,0.0625,0.044921875,-0.71484375,0.73876953125
96,1597981875699502,-0.184326171875,0.3299560546875,-0.83319091796875,0.40362548828125,-0.5625,0.1875,-0.125,0.03955078125,-0.71240234375,0.72705078125
97,1597981875721501,-0.18438720703125,0.33013916015625,-0.8331298828125,0.403564453125,-1.375,-0.1875,-0.375,0.03955078125,-0.72021484375,0.734375
98,1597981875743501,-0.1844482421875,0.33013916015625,-0.8331298828125,0.403564453125,0.6875,0.125,0.125,0.04345703125,-0.7158203125,0.73046875
99,1597981875758498,-0.184326171875,0.3299560546875,-0.833251953125,0.403564453125,1.0625,0.0625,0.125,0.04443359375,-0.7109375,0.73095703125
100,1597981875781501,-0.184326171875,0.3299560546875,-0.833251953125,0.403564453125,0.0,0.125,0.0,0.04736328125,-0.71142578125,0.73486328125
