index,timestamp,orientation_x,orientation_y,orientation_z,orientation_w,gyroscope_x,gyroscope_y,gyroscope_z,acceleration_x,acceleration_y,acceleration_z
0,1597981871168577,-0.17047119140625,0.315673828125,-0.83807373046875,0.41094970703125,-5.375,1.3125,0.375,0.04150390625,-0.71533203125,0.765625
1,1597981871191579,-0.170166015625,0.31549072265625,-0.8382568359375,0.410888671875,2.5,1.4375,-0.3125,0.0283203125,-0.69775390625,0.7626953125
2,1597981871205577,-0.169677734375,0.31475830078125,-0.838623046875,0.410888671875,4.9375,1.125,-0.625,0.03125,-0.68115234375,0.76513671875
3,1597981871228577,-0.16937255859375,0.31439208984375,-0.8388671875,0.410888671875,1.9375,0.8125,-0.25,0.02685546875,-0.66748046875,0.7607421875
4,1597981871251587,-0.1693115234375,0.314453125,-0.8388671875,0.41082763671875,-1.125,0.625,0.25,0.029296875,-0.6748046875,0.77197265625
5,1597981871265580,-0.16943359375,0.314697265625,-0.8387451171875,0.41082763671875,-2.1875,0.25,0.5625,0.0322265625,-0.68017578125,0.77392578125
6,1597981871288577,-0.16943359375,0.31463623046875,-0.8387451171875,0.41082763671875,-0.125,0.4375,0.4375,0.03173828125,-0.6875,0.77685546875
7,1597981871311586,-0.169189453125,0.3143310546875,-0.8388671875,0.41094970703125,2.0,0.25,0.1875,0.02490234375,-0.6796875,0.7705078125
8,1597981871325578,-0.169189453125,0.31427001953125,-0.8388671875,0.41094970703125,0.0625,-0.3125,0.1875,0.025390625,-0.6748046875,0.76953125
9,1597981871348578,-0.16937255859375,0.314453125,-0.83880615234375,0.41094970703125,-2.125,-0.5,0.375,0.02880859375,-0.6806640625,0.77294921875
10,1597981871371580,-0.16949462890625,0.31463623046875,-0.83868408203125,0.4110107421875,-1.875,-0.4375,0.3125,0.025390625,-0.6845703125,0.7724609375
11,1597981871385580,-0.16949462890625,0.314697265625,-0.83868408203125,0.4110107421875,0.0,-0.75,-0.1875,0.021484375,-0.69384765625,0.77197265625
12,1597981871408577,-0.16961669921875,0.31439208984375,-0.83880615234375,0.41082763671875,1.0625,-0.625,-1.5,0.03076171875,-0.6865234375,0.7685546875
13,1597981871431671,-0.169921875,0.31402587890625,-0.8389892578125,0.41064453125,0.4375,-1.6875,-2.25,0.03173828125,-0.68701171875,0.78076171875
14,1597981871451780,-0.17041015625,0.31414794921875,-0.8389892578125,0.4102783203125,-3.1875,-2.25,-2.875,0.017578125,-0.67333984375,0.77392578125
15,1597981871468765,-0.1712646484375,0.31488037109375,-0.83880615234375,0.40985107421875,-8.125,-1.6875,-2.3125,0.03173828125,-0.6640625,0.7724609375
16,1597981871490771,-0.17266845703125,0.31622314453125,-0.8382568359375,0.40924072265625,-12.4375,-2.25,-2.25,0.04345703125,-0.67529296875,0.767578125
17,1597981871511770,-0.17401123046875,0.317626953125,-0.83770751953125,0.40869140625,-12.6875,-2.4375,-2.1875,0.03759765625,-0.6787109375,0.76708984375
18,1597981871528766,-0.1754150390625,0.319091796875,-0.8370361328125,0.408447265625,-13.0625,-4.4375,-1.5,0.01904296875,-0.69140625,0.77734375
19,1597981871552763,-0.17724609375,0.32037353515625,-0.8363037109375,0.408203125,-13.8125,-6.125,-1.5,0.03466796875,-0.6748046875,0.763671875
20,1597981871571763,-0.17938232421875,0.32208251953125,-0.8353271484375,0.4078369140625,-17.8125,-5.75,-0.8125,0.0546875,-0.66650390625,0.75341796875
21,1597981871588772,-0.18157958984375,0.32537841796875,-0.83367919921875,0.40765380859375,-25.5625,-4.25,2.3125,0.0400390625,-0.697265625,0.7587890625
22,1597981871611766,-0.18359375,0.32916259765625,-0.831787109375,0.40753173828125,-26.0,-2.8125,3.625,0.03271484375,-0.71923828125,0.7314453125
23,1597981871631771,-0.18524169921875,0.332275390625,-0.83038330078125,0.4071044921875,-22.25,-1.125,1.875,0.04052734375,-0.72119140625,0.7314453125
24,1597981871648772,-0.18695068359375,0.33544921875,-0.8291015625,0.4063720703125,-21.75,0.0,0.125,0.04931640625,-0.71142578125,0.70361328125
25,1597981871670771,-0.188720703125,0.3389892578125,-0.82757568359375,0.40576171875,-24.1875,-0.5,1.0,0.03759765625,-0.73046875,0.69921875
26,1597981871691770,-0.19073486328125,0.342529296875,-0.82574462890625,0.405517578125,-24.5625,-3.5,2.25,0.0263671875,-0.7421875,0.69873046875
27,1597981871707764,-0.19293212890625,0.3460693359375,-0.82391357421875,0.40521240234375,-23.8125,-4.0,2.25,0.03076171875,-0.75927734375,0.68310546875
28,1597981871715771,-0.194580078125,0.3489990234375,-0.822509765625,0.40478515625,-20.375,-1.375,1.5625,0.044921875,-0.76904296875,0.7001953125
29,1597981871736771,-0.1956787109375,0.3511962890625,-0.82159423828125,0.4041748046875,-14.6875,0.4375,-0.5625,0.046875,-0.76513671875,0.68896484375
30,1597981871758771,-0.19647216796875,0.3526611328125,-0.821044921875,0.40362548828125,-10.1875,0.625,-0.75,0.04248046875,-0.76171875,0.6875
31,1597981871775766,-0.19720458984375,0.3538818359375,-0.82049560546875,0.4033203125,-7.9375,-0.5625,-0.375,0.04150390625,-0.7705078125,0.6845703125
32,1597981871796770,-0.19769287109375,0.354248046875,-0.8201904296875,0.4034423828125,-4.3125,-2.25,0.75,0.0380859375,-0.759765625,0.70361328125
33,1597981871818771,-0.1981201171875,0.35406494140625,-0.82000732421875,0.40374755859375,-1.5625,-2.9375,1.0625,0.046875,-0.75048828125,0.70263671875
34,1597981871833771,-0.19866943359375,0.354248046875,-0.81976318359375,0.40386962890625,-3.5625,-2.4375,0.625,0.048828125,-0.7490234375,0.6982421875
35,1597981871856771,-0.1993408203125,0.35467529296875,-0.81939697265625,0.40380859375,-5.4375,-1.8125,0.375,0.056640625,-0.75146484375,0.6962890625
36,1597981871878771,-0.199951171875,0.3553466796875,-0.81903076171875,0.40374755859375,-5.6875,-1.3125,0.5625,0.048828125,-0.76171875,0.6884765625
37,1597981871893771,-0.20037841796875,0.355712890625,-0.8187255859375,0.40374755859375,-3.5625,-1.5,0.375,0.03955078125,-0.771484375,0.69091796875
38,1597981871916772,-0.2005615234375,0.35552978515625,-0.8187255859375,0.40380859375,0.6875,-1.5625,-0.5625,0.04052734375,-0.77001953125,0.68701171875
39,1597981871938765,-0.20074462890625,0.35528564453125,-0.8187255859375,0.404052734375,1.125,-2.125,0.125,0.03662109375,-0.759765625,0.6767578125
40,1597981871953771,-0.20086669921875,0.35491943359375,-0.8187255859375,0.40423583984375,1.4375,-1.8125,0.4375,0.04345703125,-0.76220703125,0.6845703125
41,1597981871976772,-0.200927734375,0.35467529296875,-0.81878662109375,0.40435791015625,1.125,-1.0,-0.125,0.0419921875,-0.75830078125,0.6845703125
42,1597981871998770,-0.200927734375,0.3544921875,-0.81878662109375,0.40447998046875,1.1875,-1.0,0.0625,0.03759765625,-0.763671875,0.68017578125
43,1597981872013770,-0.20098876953125,0.35394287109375,-0.81890869140625,0.4046630859375,2.375,-1.625,-0.3125,0.04248046875,-0.76171875,0.69287109375
44,1597981872036771,-0.20086669921875,0.353271484375,-0.81927490234375,0.40460205078125,3.3125,-0.125,-0.9375,0.05615234375,-0.748046875,0.6943359375
45,1597981872058771,-0.2008056640625,0.3529052734375,-0.8194580078125,0.40460205078125,1.0,-0.125,-0.625,0.046875,-0.74609375,0.693359375
46,1597981872073862,-0.20098876953125,0.35302734375,-0.81939697265625,0.40447998046875,-2.1875,-0.375,-0.375,0.04931640625,-0.74560546875,0.68896484375
47,1597981872096870,-0.2012939453125,0.353271484375,-0.81927490234375,0.404296875,-2.875,-0.125,-0.5,0.052734375,-0.76025390625,0.69775390625
48,1597981872118869,-0.201416015625,0.353515625,-0.8192138671875,0.40423583984375,-1.75,0.0,0.0,0.04931640625,-0.76513671875,0.69091796875
49,1597981872133960,-0.201416015625,0.353515625,-0.8192138671875,0.40423583984375,-0.375,-0.125,-0.0625,0.04833984375,-0.7646484375,0.6923828125
50,1597981872157014,-0.20135498046875,0.35308837890625,-0.8193359375,0.404296875,2.5625,-0.5625,-0.4375,0.04296875,-0.75927734375,0.68212890625
51,1597981872179109,-0.20123291015625,0.3526611328125,-0.81951904296875,0.4044189453125,1.875,-0.5,0.125,0.04833984375,-0.75146484375,0.6962890625
52,1597981872194100,-0.20123291015625,0.3526611328125,-0.81951904296875,0.4044189453125,0.5,-0.8125,0.0,0.0458984375,-0.7548828125,0.68798828125
53,1597981872217102,-0.201171875,0.35235595703125,-0.81964111328125,0.40447998046875,1.1875,-0.6875,0.0,0.044921875,-0.75341796875,0.69580078125
54,1597981872239094,-0.20111083984375,0.352294921875,-0.81964111328125,0.404541015625,0.25,0.125,-0.375,0.04150390625,-0.75146484375,0.6884765625
55,1597981872254197,-0.20111083984375,0.352294921875,-0.81964111328125,0.404541015625,-0.875,0.25,-0.375,0.0419921875,-0.763671875,0.69970703125
56,1597981872276198,-0.20111083984375,0.352294921875,-0.81964111328125,0.404541015625,0.3125,-0.125,-0.375,0.0458984375,-0.75830078125,0.68505859375
57,1597981872299626,-0.20111083984375,0.352294921875,-0.81964111328125,0.404541015625,-0.625,0.3125,-0.75,0.04638671875,-0.75634765625,0.69482421875
58,1597981872314614,-0.20111083984375,0.352294921875,-0.81964111328125,0.404541015625,-0.5,0.5,-0.8125,0.05029296875,-0.7587890625,0.68701171875
59,1597981872336618,-0.20111083984375,0.3524169921875,-0.8197021484375,0.40435791015625,-1.0625,0.8125,-0.6875,0.0478515625,-0.7529296875,0.68896484375
60,1597981872359618,-0.20111083984375,0.3524169921875,-0.8197021484375,0.40435791015625,0.1875,0.5,-0.625,0.04345703125,-0.76220703125,0.69580078125
61,1597981872374618,-0.20098876953125,0.35223388671875,-0.81982421875,0.404296875,1.5,0.5625,-0.375,0.048828125,-0.7626953125,0.6865234375
62,1597981872396618,-0.20068359375,0.351806640625,-0.820068359375,0.404296875,3.0625,0.625,-0.375,0.04345703125,-0.75390625,0.6865234375
63,1597981872419611,-0.20068359375,0.35174560546875,-0.820068359375,0.404296875,0.9375,0.9375,-0.5,0.05029296875,-0.7431640625,0.68310546875
64,1597981872434609,-0.20068359375,0.352294921875,-0.82000732421875,0.40399169921875,-3.1875,1.6875,-0.5625,0.04638671875,-0.7548828125,0.6884765625
65,1597981872456618,-0.2005615234375,0.352783203125,-0.82000732421875,0.4036865234375,-1.5625,2.375,-0.875,0.04443359375,-0.7705078125,0.68115234375
66,1597981872479614,-0.2001953125,0.35247802734375,-0.82025146484375,0.40362548828125,3.0,1.4375,-0.6875,0.041015625,-0.76708984375,0.6884765625
67,1597981872494611,-0.1998291015625,0.35174560546875,-0.82061767578125,0.4036865234375,5.0,0.3125,-0.6875,0.04638671875,-0.75732421875,0.6904296875
68,1597981872516709,-0.1993408203125,0.35089111328125,-0.82110595703125,0.40362548828125,5.0,1.125,-1.0625,0.05078125,-0.74560546875,0.69921875
69,1597981872538693,-0.1990966796875,0.3507080078125,-0.82135009765625,0.40350341796875,1.75,1.25,-0.875,0.04296875,-0.74853515625,0.6865234375
70,1597981872555700,-0.1990966796875,0.3507080078125,-0.82135009765625,0.40350341796875,-0.4375,0.8125,-0.5625,0.0458984375,-0.75244140625,0.69140625
71,1597981872583700,-0.1990966796875,0.35064697265625,-0.82135009765625,0.40350341796875,0.625,-0.125,0.0625,0.05126953125,-0.75048828125,0.69775390625
72,1597981872598699,-0.1990966796875,0.35064697265625,-0.82135009765625,0.40350341796875,0.75,0.0625,0.125,0.04638671875,-0.75390625,0.70556640625
73,1597981872615694,-0.1988525390625,0.35028076171875,-0.82159423828125,0.40350341796875,1.8125,0.6875,-0.1875,0.0478515625,-0.75244140625,0.70556640625
74,1597981872636699,-0.19854736328125,0.35015869140625,-0.82177734375,0.40338134765625,1.0,1.5625,-0.3125,0.04931640625,-0.75048828125,0.697265625
75,1597981872658701,-0.19830322265625,0.35015869140625,-0.82183837890625,0.40325927734375,0.3125,1.75,-0.0625,0.048828125,-0.75634765625,0.69677734375
76,1597981872675691,-0.197998046875,0.349853515625,-0.822021484375,0.4033203125,3.0,0.6875,0.125,0.0390625,-0.75439453125,0.68798828125
77,1597981872696699,-0.19769287109375,0.349609375,-0.82220458984375,0.40338134765625,1.875,1.0,0.3125,0.04833984375,-0.7451171875,0.697265625
78,1597981872718699,-0.19769287109375,0.349609375,-0.82220458984375,0.40338134765625,-0.4375,0.75,0.375,0.04345703125,-0.74853515625,0.68896484375
79,1597981872735694,-0.1976318359375,0.349853515625,-0.8221435546875,0.4033203125,-1.375,0.875,0.375,0.04248046875,-0.75830078125,0.69921875
80,1597981872756700,-0.1976318359375,0.349853515625,-0.8221435546875,0.4033203125,0.3125,0.6875,0.0,0.04638671875,-0.751953125,0.69580078125
81,1597981872781693,-0.1976318359375,0.34979248046875,-0.8221435546875,0.4033203125,0.1875,0.9375,0.25,0.0478515625,-0.75,0.6982421875
82,1597981872795693,-0.1976318359375,0.34979248046875,-0.8221435546875,0.4033203125,0.6875,0.875,-0.1875,0.04736328125,-0.74755859375,0.7021484375
83,1597981872816699,-0.1976318359375,0.34979248046875,-0.8221435546875,0.4033203125,0.25,0.625,-0.1875,0.048828125,-0.75146484375,0.69482421875
84,1597981872838785,-0.1976318359375,0.35003662109375,-0.82208251953125,0.4031982421875,-1.8125,0.875,-0.0625,0.04833984375,-0.7509765625,0.6953125
85,1597981872856777,-0.1976318359375,0.3499755859375,-0.8221435546875,0.4031982421875,-0.8125,0.1875,-0.0625,0.0458984375,-0.7509765625,0.70849609375
86,1597981872876777,-0.1976318359375,0.3499755859375,-0.8221435546875,0.4031982421875,0.375,-0.0625,0.0,0.04150390625,-0.7490234375,0.69677734375
87,1597981872898785,-0.1976318359375,0.3499755859375,-0.8221435546875,0.4031982421875,0.6875,-0.0625,0.0,0.0419921875,-0.7470703125,0.701171875
88,1597981872916777,-0.1976318359375,0.34991455078125,-0.8221435546875,0.4031982421875,0.0625,-0.1875,-0.0625,0.044921875,-0.751953125,0.70263671875
89,1597981872936785,-0.1976318359375,0.34991455078125,-0.8221435546875,0.4031982421875,0.75,-0.25,-0.0625,0.046875,-0.7490234375,0.703125
90,1597981872958786,-0.1976318359375,0.34991455078125,-0.8221435546875,0.4031982421875,0.5625,-0.125,-0.0625,0.04296875,-0.75341796875,0.697265625
91,1597981872976778,-0.197509765625,0.34967041015625,-0.82220458984375,0.4033203125,1.4375,-0.3125,0.1875,0.041015625,-0.75390625,0.6943359375
92,1597981872996785,-0.1973876953125,0.34942626953125,-0.82232666015625,0.40338134765625,1.375,-0.125,-0.125,0.04443359375,-0.74609375,0.69873046875
93,1597981873018883,-0.1973876953125,0.349365234375,-0.8223876953125,0.40338134765625,0.4375,0.4375,-0.1875,0.0419921875,-0.74755859375,0.7021484375
94,1597981873036867,-0.1973876953125,0.349365234375,-0.8223876953125,0.40338134765625,-0.1875,0.75,-0.6875,0.046875,-0.7470703125,0.7060546875
95,1597981873056874,-0.1973876953125,0.34930419921875,-0.8223876953125,0.40338134765625,-0.125,0.4375,-0.4375,0.04638671875,-0.7470703125,0.701171875
96,1597981873078866,-0.1973876953125,0.3494873046875,-0.82232666015625,0.40338134765625,-1.25,0.25,0.375,0.044921875,-0.74755859375,0.69091796875
97,1597981873096868,-0.1973876953125,0.3494873046875,-0.82232666015625,0.40338134765625,0.0,-0.0625,-0.125,0.04296875,-0.75341796875,0.7001953125
98,1597981873116873,-0.1973876953125,0.3494873046875,-0.82232666015625,0.40338134765625,0.4375,0.1875,-0.4375,0.04736328125,-0.74658203125,0.7001953125
99,1597981873138864,-0.1973876953125,0.34942626953125,-0.82232666015625,0.40338134765625,0.25,0.5625,-0.5625,0.048828125,-0.74560546875,0.6962890625
100,1597981873156867,-0.1973876953125,0.34942626953125,-0.82232666015625,0.40338134765625,-0.375,0.625,-0.3125,0.04345703125,-0.75341796875,0.6982421875
101,1597981873176873,-0.1973876953125,0.34942626953125,-0.82232666015625,0.40338134765625,0.5,0.375,-0.375,0.04541015625,-0.7509765625,0.69921875
