index,timestamp,orientation_x,orientation_y,orientation_z,orientation_w,gyroscope_x,gyroscope_y,gyroscope_z,acceleration_x,acceleration_y,acceleration_z
0,1597952236569374,0.0284423828125,0.18951416015625,-0.56561279296875,0.80206298828125,-13.0625,-8.75,-8.625,-0.38037109375,-0.22900390625,1.0078125
1,1597952236585373,0.0262451171875,0.190673828125,-0.56658935546875,0.80120849609375,-7.875,-1.5,-8.0625,-0.36572265625,-0.26123046875,0.99365234375
2,1597952236608374,0.02557373046875,0.19122314453125,-0.56744384765625,0.80047607421875,-0.1875,2.3125,-5.75,-0.34619140625,-0.24560546875,0.9951171875
3,1597952236629372,0.02606201171875,0.192138671875,-0.56805419921875,0.7998046875,0.6875,7.3125,-3.875,-0.34423828125,-0.20166015625,0.9873046875
4,1597952236645374,0.0267333984375,0.1932373046875,-0.56817626953125,0.7994384765625,-1.625,8.4375,-1.5625,-0.34033203125,-0.1630859375,0.962890625
5,1597952236668684,0.0267333984375,0.1942138671875,-0.5677490234375,0.79949951171875,-4.5625,6.1875,1.8125,-0.330078125,-0.17138671875,0.9580078125
6,1597952236689376,0.027099609375,0.1951904296875,-0.56707763671875,0.79974365234375,-2.1875,6.5625,4.25,-0.3349609375,-0.18310546875,0.95068359375
7,1597952236705385,0.02825927734375,0.19549560546875,-0.566650390625,0.7999267578125,3.125,6.1875,3.875,-0.32861328125,-0.17138671875,0.92626953125
8,1597952236734376,0.03009033203125,0.19537353515625,-0.56634521484375,0.800048828125,7.0,7.25,3.75,-0.3232421875,-0.15234375,0.93603515625
9,1597952236749617,0.03179931640625,0.19610595703125,-0.5660400390625,0.800048828125,5.375,9.3125,3.4375,-0.337890625,-0.17333984375,0.91162109375
10,1597952236765376,0.03326416015625,0.1973876953125,-0.56585693359375,0.7998046875,2.5625,11.0625,1.4375,-0.34326171875,-0.17236328125,0.8955078125
11,1597952236788378,0.034912109375,0.20001220703125,-0.56549072265625,0.79931640625,-0.3125,16.0625,1.4375,-0.36083984375,-0.17333984375,0.845703125
12,1597952236809643,0.03680419921875,0.20013427734375,-0.5653076171875,0.79937744140625,6.875,6.0,2.625,-0.3466796875,-0.13623046875,0.84765625
13,1597952236825645,0.03802490234375,0.1995849609375,-0.56536865234375,0.79937744140625,8.6875,0.0625,1.4375,-0.37451171875,-0.18408203125,0.90087890625
14,1597952236848677,0.0390625,0.20050048828125,-0.5655517578125,0.79901123046875,7.4375,3.4375,0.125,-0.43310546875,-0.244140625,0.90380859375
15,1597952236870642,0.0394287109375,0.2017822265625,-0.5665283203125,0.7979736328125,4.4375,0.8125,-6.75,-0.44775390625,-0.240234375,0.83935546875
16,1597952236884698,0.04437255859375,0.19659423828125,-0.56951904296875,0.796875,43.0,-8.9375,-10.6875,-0.35693359375,-0.13671875,0.8388671875
17,1597952236908759,0.04656982421875,0.19049072265625,-0.57196044921875,0.79644775390625,37.75,-18.9375,-6.25,-0.3359375,-0.22314453125,0.93994140625
18,1597952236931196,0.0565185546875,0.1832275390625,-0.57574462890625,0.7947998046875,67.5,3.875,-11.75,-0.3642578125,-0.05126953125,1.09521484375
19,1597952236951641,0.06927490234375,0.17681884765625,-0.58038330078125,0.7918701171875,64.25,26.8125,-21.875,-0.27685546875,0.1953125,1.1884765625
20,1597952236968766,0.067626953125,0.18218994140625,-0.580322265625,0.79083251953125,-41.25,26.125,-12.9375,-0.28759765625,0.13916015625,0.962890625
21,1597952236990645,0.05804443359375,0.19378662109375,-0.57745361328125,0.79095458984375,-87.1875,16.25,-2.625,-0.43505859375,-0.08837890625,0.865234375
22,1597952237005643,0.047119140625,0.2037353515625,-0.57659912109375,0.789794921875,-72.0625,3.25,-11.9375,-0.46484375,-0.32421875,0.8515625
23,1597952237028644,0.043701171875,0.205078125,-0.5792236328125,0.7877197265625,-0.5,-0.125,-16.125,-0.3076171875,-0.4052734375,0.8759765625
24,1597952237050649,0.04986572265625,0.20062255859375,-0.58197021484375,0.7864990234375,48.0,3.0,-6.9375,-0.33935546875,-0.18310546875,0.8994140625
25,1597952237065273,0.05584716796875,0.1971435546875,-0.58441162109375,0.78515625,33.875,0.25,-11.875,-0.4287109375,-0.01171875,0.86279296875
26,1597952237088645,0.05548095703125,0.197021484375,-0.5850830078125,0.78472900390625,-8.1875,-3.5,-8.125,-0.38720703125,-0.0205078125,0.8779296875
27,1597952237111109,0.05126953125,0.1995849609375,-0.585205078125,0.78424072265625,-25.8125,-3.3125,-7.375,-0.3857421875,-0.17041015625,0.89794921875
28,1597952237131729,0.048828125,0.20074462890625,-0.58599853515625,0.78350830078125,-9.75,-3.625,-7.5625,-0.38720703125,-0.22607421875,0.904296875
29,1597952237148731,0.04913330078125,0.1998291015625,-0.58709716796875,0.78289794921875,8.625,-2.9375,-5.75,-0.37109375,-0.19384765625,0.896484375
30,1597952237170741,0.04998779296875,0.19903564453125,-0.5877685546875,0.78253173828125,6.4375,-2.0,-3.375,-0.3896484375,-0.1455078125,0.9111328125
31,1597952237191731,0.04937744140625,0.1995849609375,-0.588134765625,0.78216552734375,-4.4375,-1.9375,-4.1875,-0.40673828125,-0.14892578125,0.90966796875
32,1597952237208731,0.0479736328125,0.2003173828125,-0.58843994140625,0.7818603515625,-7.5625,-3.0,-4.5625,-0.39892578125,-0.1748046875,0.91943359375
33,1597952237230738,0.0465087890625,0.20050048828125,-0.58892822265625,0.781494140625,-4.6875,-4.125,-4.375,-0.3701171875,-0.1904296875,0.90087890625
34,1597952237245077,0.04583740234375,0.200439453125,-0.58941650390625,0.78125,-1.0625,-2.5,-3.25,-0.36767578125,-0.18212890625,0.91845703125
35,1597952237268731,0.0450439453125,0.20037841796875,-0.58953857421875,0.78118896484375,-3.1875,-1.8125,-1.4375,-0.3623046875,-0.17041015625,0.935546875
36,1597952237290735,0.04443359375,0.2008056640625,-0.58935546875,0.78125,-3.8125,-0.0625,0.1875,-0.3662109375,-0.1767578125,0.92138671875
37,1597952237305510,0.044189453125,0.20086669921875,-0.58917236328125,0.7813720703125,-1.1875,-1.4375,1.0,-0.380859375,-0.1767578125,0.92138671875
38,1597952237328527,0.0438232421875,0.2005615234375,-0.58892822265625,0.7816162109375,-0.6875,-4.0,1.4375,-0.3759765625,-0.1689453125,0.8984375
39,1597952237350525,0.04339599609375,0.199951171875,-0.58880615234375,0.78192138671875,0.375,-4.875,1.5,-0.3701171875,-0.1767578125,0.9189453125
40,1597952237365529,0.04302978515625,0.19915771484375,-0.58868408203125,0.7822265625,1.0625,-5.1875,1.4375,-0.37158203125,-0.17578125,0.9423828125
41,1597952237387882,0.04278564453125,0.19866943359375,-0.58880615234375,0.78228759765625,0.9375,-2.625,-0.375,-0.37890625,-0.1806640625,0.97216796875
42,1597952237410387,0.04290771484375,0.19757080078125,-0.58917236328125,0.78228759765625,3.875,-4.625,-1.8125,-0.373046875,-0.1591796875,0.95068359375
43,1597952237431389,0.04296875,0.196533203125,-0.5894775390625,0.78228759765625,2.5625,-4.625,-1.4375,-0.36181640625,-0.146484375,0.93359375
44,1597952237448635,0.0423583984375,0.19561767578125,-0.58978271484375,0.7823486328125,1.6875,-5.1875,-1.25,-0.349609375,-0.1806640625,0.94091796875
45,1597952237470389,0.04266357421875,0.194580078125,-0.59002685546875,0.78240966796875,4.9375,-2.5,0.0,-0.3369140625,-0.166015625,0.92529296875
46,1597952237491387,0.04339599609375,0.1943359375,-0.5899658203125,0.782470703125,2.8125,1.9375,0.9375,-0.35546875,-0.14599609375,0.94189453125
47,1597952237508691,0.0435791015625,0.19464111328125,-0.58966064453125,0.7825927734375,-2.5,0.9375,0.875,-0.37548828125,-0.1376953125,0.92822265625
48,1597952237531346,0.04296875,0.1949462890625,-0.589599609375,0.7825927734375,-3.5625,-1.5,-0.5,-0.36767578125,-0.1630859375,0.92431640625
49,1597952237551645,0.0426025390625,0.19464111328125,-0.58966064453125,0.78265380859375,-0.75,-2.0,-0.25,-0.35205078125,-0.166015625,0.93115234375
50,1597952237568643,0.042724609375,0.19451904296875,-0.58953857421875,0.78277587890625,1.25,0.0625,1.1875,-0.3515625,-0.169921875,0.9296875
51,1597952237590642,0.04296875,0.19464111328125,-0.58929443359375,0.782958984375,0.25,0.9375,1.9375,-0.36181640625,-0.16455078125,0.92919921875
52,1597952237611636,0.04327392578125,0.194580078125,-0.589111328125,0.7830810546875,1.125,0.3125,1.5625,-0.3681640625,-0.162109375,0.93115234375
53,1597952237635645,0.04364013671875,0.1942138671875,-0.58905029296875,0.78314208984375,2.6875,-1.1875,0.625,-0.3701171875,-0.15771484375,0.92919921875
54,1597952237650645,0.0440673828125,0.19378662109375,-0.58917236328125,0.78314208984375,3.375,-0.875,-0.125,-0.36767578125,-0.1630859375,0.93896484375
55,1597952237671639,0.04473876953125,0.19329833984375,-0.58917236328125,0.783203125,4.5,-0.25,1.0625,-0.3681640625,-0.162109375,0.94287109375
56,1597952237688649,0.045654296875,0.1932373046875,-0.58880615234375,0.78350830078125,3.125,1.4375,3.3125,-0.3828125,-0.146484375,0.93701171875
57,1597952237718645,0.046630859375,0.1934814453125,-0.58831787109375,0.78375244140625,0.25,0.625,2.1875,-0.4052734375,-0.11328125,0.91064453125
58,1597952237731645,0.04644775390625,0.1937255859375,-0.58837890625,0.78369140625,-0.8125,-2.6875,-0.9375,-0.41015625,-0.16455078125,0.91650390625
59,1597952237748639,0.046142578125,0.193359375,-0.58880615234375,0.783447265625,3.25,-3.3125,-2.0,-0.3759765625,-0.20361328125,0.94091796875
60,1597952237770638,0.0472412109375,0.19256591796875,-0.589599609375,0.782958984375,9.4375,0.5625,-3.375,-0.35888671875,-0.16845703125,0.9287109375
61,1597952237791643,0.04840087890625,0.192138671875,-0.59027099609375,0.782470703125,5.625,1.25,-4.4375,-0.3720703125,-0.11962890625,0.9111328125
62,1597952237808722,0.04815673828125,0.19232177734375,-0.5908203125,0.78204345703125,-2.6875,-1.1875,-4.9375,-0.37109375,-0.125,0.892578125
63,1597952237831151,0.046630859375,0.19305419921875,-0.5914306640625,0.781494140625,-7.3125,-1.25,-5.9375,-0.33837890625,-0.16748046875,0.888671875
64,1597952237853641,0.045654296875,0.19378662109375,-0.592041015625,0.7808837890625,-4.4375,2.6875,-5.25,-0.31591796875,-0.18310546875,0.90380859375
65,1597952237868932,0.04571533203125,0.1942138671875,-0.592529296875,0.7803955078125,0.25,4.3125,-3.375,-0.32666015625,-0.166015625,0.89697265625
66,1597952237890641,0.046142578125,0.194580078125,-0.59283447265625,0.78009033203125,-0.6875,3.0,-2.6875,-0.35107421875,-0.12646484375,0.88623046875
67,1597952237913643,0.04534912109375,0.195068359375,-0.593017578125,0.7799072265625,-5.0,-1.0,-2.625,-0.3486328125,-0.15185546875,0.87890625
68,1597952237928639,0.0452880859375,0.19500732421875,-0.593017578125,0.7799072265625,-0.9375,-0.75,-0.25,-0.330078125,-0.185546875,0.9140625
69,1597952237951244,0.04583740234375,0.19464111328125,-0.59307861328125,0.7799072265625,5.5625,1.0625,1.125,-0.35205078125,-0.18701171875,0.9326171875
70,1597952237973649,0.046875,0.19403076171875,-0.593017578125,0.780029296875,6.375,-0.5,1.8125,-0.37451171875,-0.15185546875,0.9189453125
71,1597952237987643,0.04693603515625,0.19329833984375,-0.59295654296875,0.7802734375,1.5,-4.8125,0.6875,-0.37451171875,-0.13818359375,0.9013671875
72,1597952238010640,0.04656982421875,0.1922607421875,-0.59295654296875,0.780517578125,2.8125,-6.375,1.0,-0.353515625,-0.1728515625,0.91162109375
73,1597952238033640,0.046875,0.19097900390625,-0.59307861328125,0.78070068359375,6.0625,-4.1875,1.0625,-0.3466796875,-0.15869140625,0.93310546875
74,1597952238047638,0.04766845703125,0.190185546875,-0.59295654296875,0.781005859375,4.625,-0.5,2.3125,-0.35498046875,-0.13330078125,0.95751953125
75,1597952238071198,0.04827880859375,0.19012451171875,-0.59259033203125,0.78125,0.0625,0.625,2.1875,-0.3837890625,-0.12255859375,0.9560546875
76,1597952238093641,0.0479736328125,0.19036865234375,-0.59234619140625,0.7813720703125,-3.5625,-1.75,0.375,-0.39111328125,-0.13623046875,0.94287109375
77,1597952238107389,0.0474853515625,0.19061279296875,-0.59210205078125,0.78155517578125,-4.0,-1.625,0.5,-0.369140625,-0.142578125,0.935546875
78,1597952238131264,0.0474853515625,0.19073486328125,-0.591796875,0.78173828125,-0.9375,0.4375,1.75,-0.36279296875,-0.15576171875,0.94482421875
79,1597952238153167,0.04827880859375,0.1907958984375,-0.591552734375,0.7818603515625,3.25,2.125,2.375,-0.375,-0.154296875,0.94140625
80,1597952238174164,0.049072265625,0.1907958984375,-0.59130859375,0.781982421875,2.4375,1.5,2.0625,-0.37744140625,-0.140625,0.927734375
81,1597952238191163,0.04931640625,0.19073486328125,-0.591064453125,0.7822265625,0.5,-0.5625,1.8125,-0.37353515625,-0.1416015625,0.9287109375
82,1597952238213160,0.049072265625,0.19073486328125,-0.59088134765625,0.78228759765625,-0.9375,-1.3125,0.8125,-0.3642578125,-0.15771484375,0.921875
83,1597952238228045,0.04913330078125,0.1904296875,-0.59100341796875,0.7823486328125,2.0,-0.625,0.125,-0.3466796875,-0.15576171875,0.91796875
84,1597952238250989,0.0496826171875,0.18994140625,-0.5909423828125,0.782470703125,3.5625,-0.125,1.25,-0.3466796875,-0.138671875,0.912109375
85,1597952238273189,0.0499267578125,0.1895751953125,-0.5909423828125,0.78253173828125,2.25,-1.1875,0.625,-0.35107421875,-0.14453125,0.9091796875
86,1597952238287990,0.0498046875,0.1893310546875,-0.59100341796875,0.78253173828125,1.125,-1.5625,-0.1875,-0.3505859375,-0.15625,0.90283203125
87,1597952238310992,0.04974365234375,0.18896484375,-0.59112548828125,0.78253173828125,1.75,-1.125,-0.25,-0.33544921875,-0.15283203125,0.90966796875
88,1597952238333768,0.0498046875,0.188720703125,-0.59124755859375,0.782470703125,1.25,-0.125,-0.4375,-0.34326171875,-0.14404296875,0.9169921875
89,1597952238356003,0.0496826171875,0.1888427734375,-0.59130859375,0.782470703125,-2.25,-0.9375,-1.0625,-0.3662109375,-0.12451171875,0.91162109375
90,1597952238370995,0.04901123046875,0.18878173828125,-0.59149169921875,0.7823486328125,-2.9375,-2.4375,-2.0625,-0.3544921875,-0.14306640625,0.92529296875
91,1597952238392988,0.048828125,0.1883544921875,-0.5916748046875,0.7823486328125,-0.875,-3.75,-1.8125,-0.37744140625,-0.1279296875,0.9462890625
92,1597952238413988,0.0484619140625,0.1881103515625,-0.591796875,0.78228759765625,-0.375,-4.0,-1.25,-0.38720703125,-0.154296875,0.9501953125
93,1597952238430989,0.04864501953125,0.18743896484375,-0.592041015625,0.78228759765625,2.75,-3.0625,-1.125,-0.373046875,-0.142578125,0.9541015625
94,1597952238452990,0.0491943359375,0.186767578125,-0.59228515625,0.7822265625,3.0,-3.125,-1.4375,-0.3857421875,-0.11962890625,0.94287109375
95,1597952238473993,0.0489501953125,0.18646240234375,-0.59259033203125,0.78204345703125,0.25,-3.75,-2.4375,-0.37744140625,-0.14404296875,0.93212890625
96,1597952238490990,0.048828125,0.18603515625,-0.59283447265625,0.781982421875,0.75,-2.5625,-1.625,-0.35302734375,-0.1376953125,0.9306640625
97,1597952238512987,0.04888916015625,0.18603515625,-0.59283447265625,0.781982421875,-0.0625,0.0,0.9375,-0.35791015625,-0.12646484375,0.9326171875
98,1597952238533988,0.049072265625,0.18646240234375,-0.59234619140625,0.7822265625,-1.375,0.75,2.5625,-0.37841796875,-0.14306640625,0.9208984375
99,1597952238550991,0.0491943359375,0.18670654296875,-0.59210205078125,0.78240966796875,-0.375,0.1875,1.8125,-0.35302734375,-0.140625,0.884765625
