index,timestamp,orientation_x,orientation_y,orientation_z,orientation_w,gyroscope_x,gyroscope_y,gyroscope_z,acceleration_x,acceleration_y,acceleration_z
0,1597652407067245,-0.049072265625,-0.13934326171875,-0.612060546875,0.77685546875,-0.125,0.6875,-0.375,0.2744140625,0.09375,0.9482421875
1,1597652407087390,-0.049072265625,-0.13934326171875,-0.612060546875,0.77685546875,-0.75,0.3125,-0.1875,0.27783203125,0.09521484375,0.9541015625
2,1597652407109386,-0.04925537109375,-0.13916015625,-0.612060546875,0.77691650390625,-1.4375,0.0625,0.1875,0.26904296875,0.09033203125,0.94921875
3,1597652407126382,-0.049560546875,-0.138916015625,-0.612060546875,0.77691650390625,-1.9375,0.25,0.25,0.27587890625,0.087890625,0.93212890625
4,1597652407148001,-0.0499267578125,-0.1385498046875,-0.6121826171875,0.77691650390625,-2.5,0.375,-0.1875,0.2744140625,0.08056640625,0.94970703125
5,1597652407169112,-0.050048828125,-0.1383056640625,-0.61224365234375,0.77685546875,-1.0625,0.5,-0.625,0.2734375,0.08447265625,0.95263671875
6,1597652407190998,-0.050048828125,-0.1383056640625,-0.6123046875,0.77685546875,-0.9375,0.4375,0.0,0.26513671875,0.09375,0.94873046875
7,1597652407207999,-0.05023193359375,-0.1380615234375,-0.61236572265625,0.77679443359375,-2.0,0.3125,-0.1875,0.2705078125,0.09326171875,0.9443359375
8,1597652407228501,-0.05023193359375,-0.1380615234375,-0.61236572265625,0.77679443359375,-0.625,0.25,-0.5625,0.27392578125,0.08984375,0.9541015625
9,1597652407251521,-0.0501708984375,-0.1380615234375,-0.61236572265625,0.77679443359375,0.0625,0.0625,-0.5,0.2724609375,0.10009765625,0.95263671875
10,1597652407267541,-0.0501708984375,-0.1380615234375,-0.61236572265625,0.77679443359375,-0.875,-0.0625,-0.25,0.2744140625,0.0908203125,0.94873046875
11,1597652407289534,-0.0501708984375,-0.1380615234375,-0.61236572265625,0.77679443359375,-0.375,0.0625,-0.8125,0.27783203125,0.09130859375,0.95556640625
12,1597652407311538,-0.05010986328125,-0.13787841796875,-0.612548828125,0.77667236328125,-0.875,0.8125,-1.3125,0.27294921875,0.09326171875,0.95849609375
13,1597652407330049,-0.05023193359375,-0.1375732421875,-0.61260986328125,0.77667236328125,-1.6875,0.4375,-0.1875,0.267578125,0.0908203125,0.955078125
14,1597652407348991,-0.05023193359375,-0.1375732421875,-0.6126708984375,0.77667236328125,-0.4375,-0.1875,-0.0625,0.263671875,0.09521484375,0.970703125
15,1597652407371810,-0.049560546875,-0.137451171875,-0.61236572265625,0.7769775390625,0.875,3.0625,2.1875,0.2744140625,0.11572265625,0.943359375
16,1597652407389813,-0.05023193359375,-0.13677978515625,-0.6126708984375,0.77679443359375,-7.1875,1.0625,-0.75,0.27587890625,0.111328125,0.93994140625
17,1597652407410474,-0.0513916015625,-0.13568115234375,-0.61297607421875,0.77667236328125,-8.375,0.6875,-1.0,0.27490234375,0.07470703125,0.9765625
18,1597652407431642,-0.05267333984375,-0.1348876953125,-0.61328125,0.7764892578125,-7.5625,-1.5625,-0.875,0.26708984375,0.06689453125,0.95849609375
19,1597652407450058,-0.0528564453125,-0.13458251953125,-0.613525390625,0.77630615234375,-3.875,1.0625,-1.375,0.28125,0.107421875,0.95849609375
20,1597652407470059,-0.0528564453125,-0.1341552734375,-0.61273193359375,0.77703857421875,0.6875,1.625,6.0625,0.27490234375,0.060546875,0.99462890625
21,1597652407491053,-0.052734375,-0.13214111328125,-0.61224365234375,0.77777099609375,-3.8125,7.9375,4.5625,0.24609375,0.052734375,0.9736328125
22,1597652407509098,-0.0504150390625,-0.132080078125,-0.61212158203125,0.77801513671875,7.375,11.75,0.3125,0.30859375,0.12548828125,0.93603515625
23,1597652407529127,-0.04840087890625,-0.131103515625,-0.61126708984375,0.77899169921875,6.8125,12.625,5.9375,0.2763671875,0.07568359375,0.9677734375
24,1597652407551143,-0.04632568359375,-0.128662109375,-0.61114501953125,0.77960205078125,0.5625,17.5625,1.6875,0.25244140625,0.09619140625,0.99658203125
25,1597652407569145,-0.0443115234375,-0.125732421875,-0.6112060546875,0.7801513671875,0.1875,21.6875,0.4375,0.2685546875,0.06298828125,0.984375
26,1597652407589141,-0.04156494140625,-0.122314453125,-0.61138916015625,0.78070068359375,0.1875,23.0625,0.3125,0.21435546875,0.09033203125,0.9873046875
27,1597652407611214,-0.038330078125,-0.119140625,-0.61187744140625,0.781005859375,0.8125,24.8125,-1.8125,0.224609375,0.1181640625,0.99609375
28,1597652407629143,-0.036376953125,-0.11572265625,-0.6121826171875,0.7813720703125,-4.25,22.125,-0.75,0.220703125,0.09912109375,0.966796875
29,1597652407650863,-0.03466796875,-0.11297607421875,-0.61236572265625,0.78167724609375,-2.375,17.9375,-0.25,0.2099609375,0.0888671875,0.9755859375
30,1597652407670860,-0.0328369140625,-0.1102294921875,-0.6124267578125,0.7821044921875,-0.375,19.875,0.5625,0.22607421875,0.068359375,0.974609375
31,1597652407688928,-0.0306396484375,-0.10797119140625,-0.61248779296875,0.782470703125,2.9375,18.1875,-0.1875,0.20556640625,0.0693359375,0.96630859375
32,1597652407708860,-0.02740478515625,-0.10736083984375,-0.612060546875,0.78302001953125,11.0,15.9375,1.875,0.22509765625,0.11083984375,0.97021484375
33,1597652407731152,-0.024169921875,-0.1064453125,-0.61163330078125,0.7835693359375,11.8125,17.5625,1.75,0.22216796875,0.08935546875,0.98095703125
34,1597652407749606,-0.02142333984375,-0.10504150390625,-0.6114501953125,0.78399658203125,9.375,18.5,0.4375,0.228515625,0.06689453125,0.990234375
35,1597652407770590,-0.016357421875,-0.1033935546875,-0.6112060546875,0.78448486328125,19.5,28.5625,-1.0,0.23681640625,0.0712890625,1.01611328125
36,1597652407791030,-0.01019287109375,-0.10211181640625,-0.6107177734375,0.78515625,25.0625,23.4375,1.375,0.1044921875,0.08740234375,0.97412109375
37,1597652407809034,-0.005859375,-0.1021728515625,-0.609375,0.7862548828125,15.125,12.125,8.5,0.11865234375,0.19189453125,0.96044921875
38,1597652407829182,-0.0028076171875,-0.10137939453125,-0.60870361328125,0.786865234375,12.375,16.8125,3.0625,0.18994140625,0.09912109375,0.94287109375
39,1597652407851396,0.00164794921875,-0.10028076171875,-0.60858154296875,0.787109375,18.25,22.6875,-1.8125,0.181640625,0.0888671875,0.9375
40,1597652407869220,0.00726318359375,-0.1005859375,-0.60821533203125,0.787353515625,24.8125,16.5,-0.375,0.115234375,0.1572265625,0.94775390625
41,1597652407890217,0.00848388671875,-0.1002197265625,-0.607177734375,0.7882080078125,3.25,9.0625,6.8125,0.173828125,0.1455078125,0.8994140625
42,1597652407911376,0.00933837890625,-0.09942626953125,-0.6065673828125,0.7886962890625,5.3125,12.25,2.6875,0.21630859375,0.06787109375,0.916015625
43,1597652407929215,0.013916015625,-0.09893798828125,-0.60650634765625,0.78875732421875,21.3125,23.3125,-3.1875,0.20458984375,0.1025390625,0.93603515625
44,1597652407951273,0.01934814453125,-0.09765625,-0.60614013671875,0.78912353515625,18.0625,22.25,0.125,0.08740234375,0.17041015625,0.93798828125
45,1597652407972103,0.0223388671875,-0.097412109375,-0.60589599609375,0.78924560546875,11.25,11.9375,-0.0625,0.12841796875,0.1728515625,0.943359375
46,1597652407989118,0.02569580078125,-0.09613037109375,-0.606201171875,0.7890625,11.875,20.0625,-4.625,0.16259765625,0.14208984375,1.01025390625
47,1597652408010137,0.0302734375,-0.09466552734375,-0.60552978515625,0.78961181640625,15.5,21.5625,2.625,0.08984375,0.16357421875,0.96826171875
48,1597652408031843,0.0333251953125,-0.09375,-0.60498046875,0.78997802734375,10.0,14.375,2.0625,0.0966796875,0.1728515625,0.9541015625
49,1597652408049844,0.036376953125,-0.09234619140625,-0.6043701171875,0.79046630859375,11.0625,16.125,2.625,0.0849609375,0.14404296875,0.986328125
50,1597652408070085,0.03973388671875,-0.09136962890625,-0.603759765625,0.7908935546875,11.625,13.75,2.5,0.05810546875,0.17919921875,0.974609375
51,1597652408091845,0.0423583984375,-0.09063720703125,-0.603515625,0.791015625,9.1875,7.625,0.875,0.0234375,0.1796875,0.978515625
52,1597652408108840,0.04498291015625,-0.091552734375,-0.6033935546875,0.7908935546875,13.8125,4.3125,-0.625,0.07666015625,0.19091796875,0.93994140625
53,1597652408130576,0.04669189453125,-0.09149169921875,-0.60430908203125,0.79010009765625,6.0625,4.3125,-7.8125,0.06787109375,0.20068359375,0.96484375
54,1597652408151471,0.046630859375,-0.09100341796875,-0.60504150390625,0.78955078125,-1.4375,1.125,-5.1875,0.080078125,0.1640625,0.943359375
55,1597652408169475,0.04681396484375,-0.0914306640625,-0.6058349609375,0.7889404296875,3.625,-1.5625,-6.0,0.0859375,0.15576171875,0.94677734375
56,1597652408190696,0.04779052734375,-0.0924072265625,-0.60650634765625,0.78826904296875,8.625,-0.75,-5.8125,0.1015625,0.1669921875,0.94873046875
57,1597652408211473,0.049560546875,-0.09283447265625,-0.60723876953125,0.78753662109375,7.25,5.4375,-7.0,0.10693359375,0.2109375,0.9501953125
58,1597652408229498,0.05029296875,-0.0916748046875,-0.6082763671875,0.78680419921875,-2.25,6.1875,-7.375,0.06787109375,0.20654296875,0.9501953125
59,1597652408251315,0.04998779296875,-0.09033203125,-0.60882568359375,0.78656005859375,-3.875,3.625,-3.9375,0.064453125,0.14794921875,0.97265625
60,1597652408271707,0.0501708984375,-0.09014892578125,-0.609130859375,0.78631591796875,0.9375,0.4375,-2.1875,0.06982421875,0.17333984375,0.9638671875
61,1597652408289080,0.05072021484375,-0.08990478515625,-0.609375,0.7861328125,3.4375,3.3125,-2.25,0.08837890625,0.16064453125,0.9716796875
62,1597652408311986,0.05242919921875,-0.08966064453125,-0.60980224609375,0.78570556640625,3.4375,6.5625,-4.375,0.06982421875,0.2392578125,0.96728515625
63,1597652408331038,0.05218505859375,-0.08807373046875,-0.61053466796875,0.78533935546875,-7.25,2.875,-4.375,0.03466796875,0.19140625,0.97607421875
64,1597652408349051,0.05133056640625,-0.0872802734375,-0.61077880859375,0.7852783203125,-4.9375,-1.4375,-0.75,0.04248046875,0.15869140625,0.96630859375
65,1597652408372050,0.0501708984375,-0.08740234375,-0.611083984375,0.78509521484375,-6.5625,-7.3125,-0.875,0.04150390625,0.205078125,0.96484375
66,1597652408391629,0.0482177734375,-0.087158203125,-0.61138916015625,0.7850341796875,-9.9375,-4.3125,-1.0,0.09521484375,0.1767578125,0.95654296875
67,1597652408409742,0.047607421875,-0.0867919921875,-0.61181640625,0.7847900390625,-3.5,-0.875,-2.5,0.0732421875,0.171875,0.96337890625
68,1597652408431638,0.04742431640625,-0.08660888671875,-0.61212158203125,0.7845458984375,-1.75,-0.4375,-2.1875,0.07275390625,0.181640625,0.96728515625
69,1597652408451532,0.04730224609375,-0.08642578125,-0.6124267578125,0.78436279296875,-2.0625,0.3125,-1.8125,0.07958984375,0.18701171875,0.98046875
70,1597652408469454,0.047607421875,-0.0858154296875,-0.61236572265625,0.78448486328125,-3.375,3.0,0.625,0.0615234375,0.21630859375,0.97900390625
71,1597652408491535,0.047119140625,-0.083740234375,-0.61297607421875,0.78424072265625,-15.9375,4.875,-3.25,0.0380859375,0.26416015625,0.97412109375
72,1597652408512441,0.04254150390625,-0.081298828125,-0.6138916015625,0.7840576171875,-28.5,-6.375,-3.125,0.05810546875,0.1376953125,0.9150390625
73,1597652408533654,0.0379638671875,-0.07989501953125,-0.61444091796875,0.78399658203125,-18.625,-9.8125,-1.375,0.0771484375,0.04931640625,0.95361328125
74,1597652408551562,0.03607177734375,-0.08050537109375,-0.61480712890625,0.78369140625,-6.875,-9.375,-1.8125,0.0791015625,0.15576171875,0.9423828125
75,1597652408571639,0.033447265625,-0.080322265625,-0.616455078125,0.7825927734375,-11.375,-12.875,-9.625,0.0302734375,0.11767578125,0.9365234375
76,1597652408593565,0.02947998046875,-0.0819091796875,-0.617919921875,0.78143310546875,-12.8125,-27.75,-7.6875,0.0029296875,0.14306640625,0.93505859375
77,1597652408612233,0.0234375,-0.08447265625,-0.61944580078125,0.78009033203125,-17.9375,-38.0625,-7.8125,0.037109375,0.125,0.9365234375
78,1597652408631560,0.01739501953125,-0.087158203125,-0.62066650390625,0.77899169921875,-16.8125,-33.875,-6.1875,0.11962890625,0.12060546875,0.990234375
79,1597652408653567,0.01397705078125,-0.08905029296875,-0.62152099609375,0.7781982421875,-8.6875,-19.0,-5.125,0.15380859375,0.130859375,0.9951171875
80,1597652408673564,0.011474609375,-0.0908203125,-0.62237548828125,0.77734375,-5.375,-21.0,-4.875,0.06884765625,0.130859375,0.98828125
81,1597652408691619,0.0103759765625,-0.09454345703125,-0.6231689453125,0.77630615234375,4.9375,-23.0,-6.0,0.1015625,0.1728515625,0.935546875
82,1597652408713559,0.005126953125,-0.09674072265625,-0.62371826171875,0.77557373046875,-13.875,-28.5625,-2.3125,0.14697265625,0.0947265625,0.94384765625
83,1597652408732575,-0.0003662109375,-0.09881591796875,-0.62371826171875,0.775390625,-12.1875,-25.625,1.0,0.19970703125,0.0498046875,0.974609375
84,1597652408758641,-0.00311279296875,-0.101806640625,-0.62359619140625,0.77508544921875,0.0625,-21.0,0.8125,0.189453125,0.10107421875,0.95703125
85,1597652408773672,-0.00543212890625,-0.103759765625,-0.62335205078125,0.7750244140625,-3.5625,-14.9375,1.75,0.193359375,0.12255859375,0.9677734375
86,1597652408791666,-0.00762939453125,-0.10491943359375,-0.62335205078125,0.77484130859375,-6.5625,-12.5,0.75,0.18310546875,0.13330078125,0.98583984375
87,1597652408812657,-0.00946044921875,-0.1055908203125,-0.6231689453125,0.77484130859375,-6.375,-8.5,1.875,0.19921875,0.13037109375,1.01220703125
88,1597652408834132,-0.01080322265625,-0.10638427734375,-0.6226806640625,0.775146484375,-2.9375,-6.9375,3.9375,0.2001953125,0.12060546875,1.01220703125
89,1597652408851566,-0.01287841796875,-0.10693359375,-0.62225341796875,0.77532958984375,-9.0,-10.375,4.0,0.1669921875,0.13720703125,0.92822265625
90,1597652408872633,-0.0152587890625,-0.1077880859375,-0.622314453125,0.775146484375,-7.375,-9.75,0.0,0.2265625,0.10791015625,0.9833984375
91,1597652408893566,-0.01544189453125,-0.10797119140625,-0.62274169921875,0.7747802734375,1.6875,1.1875,-3.625,0.23388671875,0.080078125,1.00146484375
92,1597652408912088,-0.0150146484375,-0.1077880859375,-0.621826171875,0.77557373046875,-0.125,2.625,6.9375,0.1689453125,0.13330078125,0.91455078125
93,1597652408933097,-0.01708984375,-0.108642578125,-0.62060546875,0.7763671875,-9.375,-11.5,10.0625,0.17724609375,0.16162109375,0.95703125
94,1597652408954115,-0.0201416015625,-0.10760498046875,-0.62054443359375,0.7764892578125,-15.875,-3.0625,2.125,0.2353515625,0.080078125,0.9716796875
95,1597652408972119,-0.0218505859375,-0.10662841796875,-0.6204833984375,0.776611328125,-8.1875,0.0625,1.3125,0.2158203125,0.056640625,0.95849609375
96,1597652408993263,-0.022216796875,-0.10614013671875,-0.62060546875,0.77655029296875,-3.75,0.5,-0.5,0.18701171875,0.10009765625,0.97900390625
97,1597652409014118,-0.02276611328125,-0.10601806640625,-0.6204833984375,0.77667236328125,-6.6875,-3.6875,2.375,0.15771484375,0.15087890625,0.9755859375
98,1597652409032118,-0.023193359375,-0.10601806640625,-0.62091064453125,0.77630615234375,-7.875,-2.5,-1.875,0.18408203125,0.1826171875,0.99169921875
99,1597652409053768,-0.0262451171875,-0.10430908203125,-0.62200927734375,0.77557373046875,-21.75,-4.875,-5.25,0.1650390625,0.0986328125,0.92529296875
100,1597652409073804,-0.0316162109375,-0.1029052734375,-0.62322998046875,0.77459716796875,-27.0,-11.3125,-6.0625,0.22509765625,0.04150390625,0.97607421875
