index,timestamp,orientation_x,orientation_y,orientation_z,orientation_w,gyroscope_x,gyroscope_y,gyroscope_z,acceleration_x,acceleration_y,acceleration_z
0,1596961571671431,-0.0303955078125,-0.11883544921875,-0.93597412109375,0.33001708984375,-0.25,0.9375,-0.5,0.111328125,0.1923828125,0.962890625
1,1596961571692433,-0.030029296875,-0.1190185546875,-0.93603515625,0.32989501953125,1.6875,0.1875,-0.5625,0.1162109375,0.1982421875,0.96630859375
2,1596961571708435,-0.02972412109375,-0.11907958984375,-0.93603515625,0.32977294921875,1.3125,0.75,-0.75,0.123046875,0.1962890625,0.962890625
3,1596961571731432,-0.02972412109375,-0.1190185546875,-0.93609619140625,0.329833984375,0.4375,0.6875,-0.25,0.12109375,0.18115234375,0.962890625
4,1596961571753432,-0.029541015625,-0.11962890625,-0.93603515625,0.32965087890625,3.875,-0.5625,-0.9375,0.12841796875,0.19580078125,0.9609375
5,1596961571768430,-0.02947998046875,-0.1199951171875,-0.93609619140625,0.3294677734375,2.0,-1.0,-1.3125,0.12744140625,0.20654296875,0.96435546875
6,1596961571791433,-0.02947998046875,-0.1199951171875,-0.93609619140625,0.3294677734375,-0.875,-0.25,-0.5625,0.11962890625,0.19140625,0.970703125
7,1596961571813437,-0.0294189453125,-0.119873046875,-0.93609619140625,0.3294677734375,0.375,-0.1875,0.125,0.10986328125,0.185546875,0.9736328125
8,1596961571828435,-0.02911376953125,-0.12005615234375,-0.93609619140625,0.3294677734375,2.0625,-0.0625,0.0,0.1142578125,0.197265625,0.9716796875
9,1596961571851434,-0.02911376953125,-0.1199951171875,-0.93609619140625,0.3294677734375,0.5,0.0,-0.5625,0.1162109375,0.189453125,0.9677734375
10,1596961571873435,-0.02886962890625,-0.12030029296875,-0.9361572265625,0.3292236328125,2.375,-0.625,-1.5,0.1162109375,0.20068359375,0.9716796875
11,1596961571887432,-0.02880859375,-0.12030029296875,-0.9361572265625,0.3292236328125,0.9375,-0.125,-0.75,0.11669921875,0.20458984375,0.9638671875
12,1596961571911438,-0.02880859375,-0.12030029296875,-0.9361572265625,0.32916259765625,-0.5625,0.1875,-0.375,0.125,0.201171875,0.96533203125
13,1596961571933433,-0.02874755859375,-0.1202392578125,-0.9361572265625,0.32916259765625,-0.0625,0.8125,-0.75,0.119140625,0.20556640625,0.96630859375
14,1596961571947434,-0.02825927734375,-0.12030029296875,-0.93621826171875,0.3291015625,1.0625,1.5625,-0.75,0.11865234375,0.20703125,0.9677734375
15,1596961571971432,-0.02777099609375,-0.1201171875,-0.936279296875,0.3289794921875,0.125,1.625,-1.0625,0.1123046875,0.20166015625,0.97412109375
16,1596961571993431,-0.0274658203125,-0.11993408203125,-0.9364013671875,0.32879638671875,0.0625,0.8125,-1.1875,0.11376953125,0.1943359375,0.96923828125
17,1596961572014434,-0.0272216796875,-0.1197509765625,-0.93646240234375,0.32861328125,0.4375,1.0,-1.125,0.1181640625,0.1904296875,0.96533203125
18,1596961572031432,-0.02691650390625,-0.119384765625,-0.9365234375,0.32855224609375,-0.6875,1.0625,-0.625,0.11572265625,0.1962890625,0.97021484375
19,1596961572053431,-0.02691650390625,-0.11932373046875,-0.9365234375,0.32855224609375,-0.875,0.8125,-0.0625,0.1171875,0.18408203125,0.9599609375
20,1596961572067435,-0.02679443359375,-0.11944580078125,-0.9365234375,0.32861328125,1.75,0.0,0.0625,0.1181640625,0.1884765625,0.95751953125
21,1596961572091430,-0.0267333984375,-0.11968994140625,-0.9365234375,0.32861328125,2.0625,-0.6875,0.0625,0.11865234375,0.19873046875,0.962890625
22,1596961572113431,-0.02667236328125,-0.11968994140625,-0.9365234375,0.32861328125,0.125,-0.75,0.0,0.12109375,0.197265625,0.9609375
23,1596961572127429,-0.0267333984375,-0.1195068359375,-0.93646240234375,0.3287353515625,-1.4375,0.0625,0.875,0.123046875,0.20751953125,0.9580078125
24,1596961572151432,-0.02740478515625,-0.11920166015625,-0.93634033203125,0.32916259765625,-3.75,-2.5,3.0,0.13037109375,0.21484375,0.93896484375
25,1596961572173434,-0.02838134765625,-0.1190185546875,-0.936279296875,0.32940673828125,-4.0625,-3.25,1.9375,0.15185546875,0.21875,0.94775390625
26,1596961572187432,-0.0291748046875,-0.11810302734375,-0.936279296875,0.32958984375,-5.3125,-2.375,1.375,0.12353515625,0.171875,0.9169921875
27,1596961572211433,-0.02996826171875,-0.11700439453125,-0.9364013671875,0.32958984375,-5.3125,-5.375,1.125,0.08984375,0.17236328125,0.98291015625
28,1596961572233433,-0.0277099609375,-0.11737060546875,-0.93682861328125,0.32843017578125,4.375,10.0625,-8.375,0.12841796875,0.22998046875,1.02734375
29,1596961572254431,-0.0233154296875,-0.117431640625,-0.937255859375,0.32757568359375,2.25,23.0625,-7.6875,0.13232421875,0.31005859375,1.05810546875
30,1596961572271433,-0.0174560546875,-0.11663818359375,-0.93743896484375,0.32757568359375,-0.1875,27.6875,-2.4375,0.03369140625,0.306640625,0.986328125
31,1596961572293431,-0.01483154296875,-0.11322021484375,-0.938232421875,0.32666015625,-5.125,13.25,-7.4375,-0.00634765625,0.05419921875,0.89013671875
32,1596961572315432,-0.01312255859375,-0.11163330078125,-0.93896484375,0.32525634765625,1.8125,7.4375,-9.875,0.046875,0.09375,1.0146484375
33,1596961572331440,-0.0108642578125,-0.112548828125,-0.9385986328125,0.3260498046875,3.4375,12.6875,3.375,0.1201171875,0.29638671875,0.98583984375
34,1596961572353431,-0.008544921875,-0.10638427734375,-0.939208984375,0.32647705078125,-26.6875,25.0,-0.125,0.099609375,0.162109375,1.01953125
35,1596961572374508,-0.00726318359375,-0.10333251953125,-0.93951416015625,0.32659912109375,-9.0625,9.0,-0.4375,0.0224609375,0.10400390625,0.91455078125
36,1596961572391430,-0.007080078125,-0.1044921875,-0.939697265625,0.32562255859375,7.3125,-1.0625,-5.9375,0.08740234375,0.17724609375,0.9697265625
37,1596961572414434,-0.00531005859375,-0.10357666015625,-0.93988037109375,0.325439453125,-5.8125,13.75,-2.375,0.11669921875,0.2529296875,1.0
38,1596961572434433,-0.0032958984375,-0.0982666015625,-0.940185546875,0.326171875,-22.1875,19.25,2.3125,0.04296875,0.14501953125,0.9970703125
39,1596961572450434,-0.00238037109375,-0.0968017578125,-0.9404296875,0.3260498046875,-4.4375,7.0,-1.625,0.05859375,0.14599609375,0.95556640625
40,1596961572473436,-0.00238037109375,-0.0972900390625,-0.940673828125,0.3251953125,0.0625,0.5,-5.4375,0.09033203125,0.2099609375,0.93896484375
41,1596961572494470,-0.00201416015625,-0.09564208984375,-0.9410400390625,0.32452392578125,-7.9375,6.625,-5.0,0.09765625,0.177734375,1.02197265625
42,1596961572510430,-0.00054931640625,-0.09375,-0.94134521484375,0.32421875,-8.5625,10.125,-2.75,0.044921875,0.18505859375,0.96826171875
43,1596961572533434,0.0006103515625,-0.0928955078125,-0.9415283203125,0.32391357421875,-1.1875,7.25,-2.5,0.0517578125,0.15283203125,0.97900390625
44,1596961572554434,0.0013427734375,-0.0938720703125,-0.94171142578125,0.3231201171875,7.125,0.0625,-4.875,0.03076171875,0.16064453125,0.939453125
45,1596961572571432,0.0015869140625,-0.094482421875,-0.94207763671875,0.3218994140625,6.0,-0.0625,-7.625,0.06640625,0.15185546875,1.03173828125
46,1596961572593432,0.00262451171875,-0.09503173828125,-0.94244384765625,0.32061767578125,0.3125,3.125,-7.6875,0.044921875,0.2353515625,0.9345703125
47,1596961572616434,0.003173828125,-0.09295654296875,-0.94293212890625,0.31988525390625,-9.125,5.125,-5.125,0.03662109375,0.1572265625,0.99169921875
48,1596961572631430,0.00390625,-0.0926513671875,-0.94329833984375,0.31884765625,2.5,0.4375,-6.25,-0.0009765625,0.13134765625,0.966796875
49,1596961572656436,0.0035400390625,-0.09423828125,-0.94342041015625,0.31793212890625,9.5625,-6.125,-5.0,0.03955078125,0.1494140625,0.94482421875
50,1596961572676434,0.00341796875,-0.09503173828125,-0.9434814453125,0.3175048828125,0.3125,-1.0,-2.5,0.0751953125,0.2333984375,0.98291015625
51,1596961572691431,0.00390625,-0.09234619140625,-0.94378662109375,0.3173828125,-12.25,6.8125,-1.3125,0.03955078125,0.16015625,1.00927734375
52,1596961572713428,0.0050048828125,-0.09222412109375,-0.9439697265625,0.31695556640625,4.8125,1.9375,-2.625,-0.00830078125,0.1240234375,0.9765625
53,1596961572736437,0.0052490234375,-0.093505859375,-0.94390869140625,0.31671142578125,8.125,-3.625,-1.1875,0.01123046875,0.16162109375,0.95703125
54,1596961572751432,0.00482177734375,-0.09503173828125,-0.9439697265625,0.31597900390625,4.6875,-5.0625,-3.6875,0.06005859375,0.220703125,0.9619140625
55,1596961572773434,0.004638671875,-0.092529296875,-0.94427490234375,0.31597900390625,-14.875,3.4375,-0.375,0.04541015625,0.19384765625,1.00048828125
56,1596961572796433,0.004638671875,-0.09063720703125,-0.9444580078125,0.31591796875,-5.0,0.125,-0.375,0.00439453125,0.09521484375,1.00537109375
57,1596961572810430,0.00445556640625,-0.092041015625,-0.9444580078125,0.31561279296875,8.8125,-4.75,-1.625,0.03076171875,0.1484375,0.9521484375
58,1596961572833430,0.00457763671875,-0.0933837890625,-0.9444580078125,0.31512451171875,6.6875,-0.8125,-2.75,0.0703125,0.19970703125,1.0146484375
59,1596961572856435,0.00537109375,-0.0914306640625,-0.94451904296875,0.31549072265625,-8.9375,6.1875,1.5,0.01953125,0.17041015625,0.97412109375
60,1596961572870430,0.00531005859375,-0.089599609375,-0.94464111328125,0.3155517578125,-3.9375,0.375,0.4375,0.0087890625,0.08544921875,1.01171875
61,1596961572893431,0.00518798828125,-0.09173583984375,-0.94464111328125,0.31500244140625,10.6875,-6.0625,-2.75,0.0322265625,0.1787109375,0.95458984375
62,1596961572922432,0.0050048828125,-0.093017578125,-0.9447021484375,0.314453125,4.6875,-2.6875,-2.875,0.06005859375,0.2109375,0.9892578125
63,1596961572932433,0.005615234375,-0.09173583984375,-0.94482421875,0.314453125,-7.25,4.125,-0.3125,0.02783203125,0.1923828125,0.98388671875
64,1596961572953434,0.00567626953125,-0.09014892578125,-0.9449462890625,0.3145751953125,-5.625,0.375,0.75,0.00390625,0.134765625,0.99169921875
65,1596961572976434,0.00555419921875,-0.09210205078125,-0.9449462890625,0.3140869140625,9.6875,-4.4375,-2.625,0.04443359375,0.18408203125,0.958984375
66,1596961572990431,0.00592041015625,-0.093017578125,-0.94500732421875,0.3135986328125,2.25,1.9375,-3.0625,0.0732421875,0.2255859375,0.984375
67,1596961573013429,0.0067138671875,-0.09124755859375,-0.94512939453125,0.3135986328125,-7.8125,5.5,-0.4375,0.01953125,0.1669921875,0.98681640625
68,1596961573036432,0.007080078125,-0.090087890625,-0.9453125,0.3134765625,-2.5625,2.25,-0.9375,0.01513671875,0.12939453125,0.9697265625
69,1596961573050432,0.00732421875,-0.09149169921875,-0.94537353515625,0.31280517578125,7.0,-2.125,-3.9375,0.03369140625,0.1845703125,0.951171875
70,1596961573073430,0.00787353515625,-0.0924072265625,-0.94537353515625,0.3125,4.1875,2.1875,-2.0625,0.060546875,0.20556640625,0.99072265625
71,1596961573096468,0.009033203125,-0.0911865234375,-0.9454345703125,0.31268310546875,-5.4375,7.4375,0.4375,0.02294921875,0.18505859375,0.97216796875
72,1596961573110434,0.00909423828125,-0.08966064453125,-0.945556640625,0.312744140625,-4.0,1.75,0.0,0.017578125,0.11669921875,0.97216796875
73,1596961573133434,0.0096435546875,-0.09124755859375,-0.94561767578125,0.31219482421875,8.8125,-1.0,-3.0,0.0244140625,0.185546875,0.96337890625
74,1596961573156432,0.00982666015625,-0.09271240234375,-0.94561767578125,0.31170654296875,7.5625,-1.75,-2.875,0.0419921875,0.1875,0.974609375
75,1596961573177432,0.01031494140625,-0.09259033203125,-0.9456787109375,0.3115234375,-2.0,3.9375,-1.5,0.05419921875,0.208984375,0.96337890625
76,1596961573193431,0.01123046875,-0.09063720703125,-0.94586181640625,0.31158447265625,-5.5,6.6875,-0.125,0.01025390625,0.12744140625,0.99462890625
77,1596961573216434,0.0120849609375,-0.0919189453125,-0.94573974609375,0.3114013671875,10.375,0.125,-1.0,0.001953125,0.15380859375,0.9697265625
78,1596961573237434,0.012451171875,-0.09320068359375,-0.94573974609375,0.3111572265625,6.375,-0.1875,-1.3125,0.03955078125,0.19580078125,0.9716796875
79,1596961573253432,0.013427734375,-0.09246826171875,-0.9456787109375,0.3115234375,-2.875,5.8125,1.6875,0.01806640625,0.18994140625,0.97265625
80,1596961573276431,0.01422119140625,-0.091064453125,-0.94561767578125,0.31207275390625,-3.5,5.1875,2.625,0.0009765625,0.14453125,0.99365234375
81,1596961573297437,0.014892578125,-0.091552734375,-0.94549560546875,0.31231689453125,6.125,0.875,1.4375,0.00048828125,0.146484375,0.96484375
82,1596961573313431,0.01519775390625,-0.09259033203125,-0.9453125,0.3125,5.0,0.4375,1.375,0.03857421875,0.20166015625,0.9736328125
83,1596961573336432,0.0155029296875,-0.0909423828125,-0.94525146484375,0.31304931640625,-8.375,4.5,2.6875,0.02099609375,0.181640625,0.99755859375
84,1596961573357430,0.01580810546875,-0.09124755859375,-0.9451904296875,0.31317138671875,4.25,-1.75,1.0625,-0.01708984375,0.1474609375,0.96337890625
85,1596961573373429,0.015380859375,-0.09222412109375,-0.94525146484375,0.312744140625,3.0,-3.5625,-2.1875,0.03955078125,0.20556640625,0.970703125
86,1596961573396440,0.015380859375,-0.09124755859375,-0.9453125,0.312744140625,-3.875,0.125,0.0,0.00537109375,0.16064453125,0.982421875
87,1596961573417434,0.01483154296875,-0.0899658203125,-0.945556640625,0.31256103515625,-2.0,-2.375,-1.1875,0.0078125,0.09912109375,1.02587890625
88,1596961573433430,0.01507568359375,-0.09259033203125,-0.94525146484375,0.3126220703125,15.4375,-4.8125,1.0625,0.00439453125,0.166015625,0.95751953125
89,1596961573456432,0.01507568359375,-0.09539794921875,-0.94500732421875,0.3125,11.125,-4.6875,0.0,0.03759765625,0.2470703125,0.95068359375
90,1596961573477433,0.014404296875,-0.09405517578125,-0.94525146484375,0.312255859375,-8.75,-1.6875,-1.1875,0.0224609375,0.18505859375,0.974609375
91,1596961573493439,0.013916015625,-0.09228515625,-0.94549560546875,0.31201171875,-5.9375,-2.0625,-1.5,-0.00146484375,0.1201171875,1.00830078125
92,1596961573516468,0.013427734375,-0.09375,-0.94549560546875,0.31158447265625,10.625,-7.8125,-1.6875,0.0009765625,0.13818359375,0.99462890625
93,1596961573537431,0.0126953125,-0.0955810546875,-0.9454345703125,0.311279296875,12.0,-8.9375,-0.6875,0.01513671875,0.1396484375,0.9873046875
94,1596961573553434,0.01177978515625,-0.09722900390625,-0.9453125,0.3111572265625,12.8125,-11.625,0.4375,-0.0146484375,0.10986328125,0.986328125
95,1596961573576436,0.01141357421875,-0.10198974609375,-0.94464111328125,0.311767578125,26.25,-13.0,5.4375,-0.001953125,0.1943359375,0.9921875
96,1596961573597436,0.01141357421875,-0.1083984375,-0.943359375,0.31353759765625,31.5625,-11.3125,12.6875,0.02978515625,0.25390625,0.94140625
97,1596961573612434,0.00958251953125,-0.11248779296875,-0.94232177734375,0.31524658203125,16.375,-16.3125,12.9375,0.04443359375,0.248046875,0.916015625
98,1596961573636431,0.00701904296875,-0.1151123046875,-0.9415283203125,0.316650390625,6.5625,-16.1875,10.3125,0.0849609375,0.26708984375,0.95263671875
99,1596961573658432,0.00469970703125,-0.11553955078125,-0.9410400390625,0.31805419921875,-3.625,-11.4375,10.1875,0.07373046875,0.24755859375,0.9794921875
100,1596961573672432,0.0029296875,-0.11468505859375,-0.94073486328125,0.31927490234375,-7.25,-7.1875,8.3125,0.0703125,0.21826171875,1.0029296875
