index,timestamp,orientation_x,orientation_y,orientation_z,orientation_w,gyroscope_x,gyroscope_y,gyroscope_z,acceleration_x,acceleration_y,acceleration_z
0,1597843940866543,-0.38433837890625,-0.0181884765625,-0.2083740234375,0.899169921875,3.3125,-29.8125,-29.875,0.08251953125,-0.7763671875,0.64599609375
1,1597843940890796,-0.38433837890625,-0.02606201171875,-0.21051025390625,0.89849853515625,12.5625,-39.5625,-33.875,0.1201171875,-0.71240234375,0.63427734375
2,1597843940909540,-0.3824462890625,-0.03369140625,-0.21307373046875,0.8984375,23.6875,-32.9375,-33.6875,0.1533203125,-0.66650390625,0.5869140625
3,1597843940926277,-0.380126953125,-0.041748046875,-0.2158203125,0.8984375,27.0625,-31.9375,-33.125,0.22216796875,-0.693359375,0.6123046875
4,1597843940948917,-0.37890625,-0.04998779296875,-0.21929931640625,0.897705078125,22.8125,-27.0625,-34.4375,0.3193359375,-0.662109375,0.5185546875
5,1597843940969543,-0.3717041015625,-0.0516357421875,-0.22247314453125,0.8997802734375,26.0,22.375,-0.3125,0.66357421875,-0.63525390625,1.06884765625
6,1597843940986678,-0.37127685546875,-0.04876708984375,-0.21856689453125,0.901123046875,-1.9375,-8.9375,14.6875,0.01953125,-0.7841796875,0.96875
7,1597843941008561,-0.3741455078125,-0.0487060546875,-0.2183837890625,0.89996337890625,-27.0,-2.375,5.625,0.3125,-0.53271484375,0.7958984375
8,1597843941029557,-0.38165283203125,-0.047119140625,-0.21649169921875,0.8973388671875,-38.75,-3.5625,11.4375,0.28369140625,-0.77978515625,0.677734375
9,1597843941045729,-0.37774658203125,-0.0494384765625,-0.21636962890625,0.89886474609375,30.375,-6.125,-4.25,0.28076171875,-0.77099609375,0.73779296875
10,1597843941068731,-0.36865234375,-0.05194091796875,-0.215576171875,0.9027099609375,53.8125,-3.125,1.5625,0.25634765625,-0.60498046875,0.7861328125
11,1597843941089734,-0.36279296875,-0.0535888671875,-0.21612548828125,0.9049072265625,31.0,0.4375,-3.25,0.267578125,-0.55224609375,0.76513671875
12,1597843941105736,-0.36114501953125,-0.05401611328125,-0.2164306640625,0.90545654296875,8.3125,0.8125,-1.5625,0.2646484375,-0.61767578125,0.7548828125
13,1597843941128842,-0.3619384765625,-0.05352783203125,-0.21600341796875,0.9052734375,-4.3125,0.0,2.4375,0.2451171875,-0.662109375,0.75048828125
14,1597843941149722,-0.36279296875,-0.05291748046875,-0.21575927734375,0.905029296875,-2.625,0.625,0.875,0.24169921875,-0.6943359375,0.73681640625
15,1597843941165728,-0.3614501953125,-0.05242919921875,-0.21575927734375,0.90557861328125,8.375,2.75,-0.5,0.2255859375,-0.67578125,0.76025390625
16,1597843941188815,-0.3597412109375,-0.05169677734375,-0.2156982421875,0.90631103515625,10.1875,3.5,-0.3125,0.2177734375,-0.67919921875,0.77490234375
17,1597843941209722,-0.35791015625,-0.05145263671875,-0.216064453125,0.90692138671875,8.9375,4.3125,-0.5,0.26123046875,-0.63525390625,0.78271484375
18,1597843941225723,-0.35650634765625,-0.05157470703125,-0.2161865234375,0.907470703125,7.5,2.5,-0.0625,0.2734375,-0.64501953125,0.78515625
19,1597843941248722,-0.35479736328125,-0.05181884765625,-0.2161865234375,0.90814208984375,8.5625,0.5625,0.1875,0.26171875,-0.642578125,0.81201171875
20,1597843941272724,-0.35491943359375,-0.0523681640625,-0.2161865234375,0.90802001953125,-6.8125,-4.8125,-0.3125,0.25048828125,-0.5703125,0.82958984375
21,1597843941285888,-0.3580322265625,-0.052490234375,-0.2164306640625,0.90673828125,-23.3125,-6.1875,-2.1875,0.24267578125,-0.62060546875,0.83251953125
22,1597843941308730,-0.36236572265625,-0.05303955078125,-0.21588134765625,0.9051513671875,-29.1875,-12.3125,0.5625,0.23681640625,-0.61962890625,0.81396484375
23,1597843941331425,-0.3660888671875,-0.05401611328125,-0.21527099609375,0.9036865234375,-21.8125,-11.75,0.125,0.25927734375,-0.6552734375,0.7607421875
24,1597843941345720,-0.36785888671875,-0.05462646484375,-0.215087890625,0.90301513671875,-9.25,-5.0,-0.0625,0.2666015625,-0.64208984375,0.71142578125
25,1597843941368719,-0.3697509765625,-0.05450439453125,-0.21417236328125,0.9024658203125,-11.5,-2.5625,6.4375,0.27099609375,-0.6015625,0.6875
26,1597843941390725,-0.3699951171875,-0.05401611328125,-0.21380615234375,0.9024658203125,-2.125,3.6875,4.9375,0.28271484375,-0.59375,0.67138671875
27,1597843941405744,-0.37109375,-0.05255126953125,-0.21356201171875,0.90216064453125,-7.3125,8.375,6.6875,0.28271484375,-0.60205078125,0.646484375
28,1597843941428811,-0.37298583984375,-0.048095703125,-0.21356201171875,0.90167236328125,-17.8125,21.5625,10.8125,0.2744140625,-0.64697265625,0.7470703125
29,1597843941450723,-0.37493896484375,-0.0399169921875,-0.2139892578125,0.901123046875,-24.25,41.125,16.4375,0.27490234375,-0.685546875,0.80615234375
30,1597843941465165,-0.378662109375,-0.03009033203125,-0.21337890625,0.90008544921875,-29.375,43.0625,21.0625,0.2001953125,-0.81201171875,0.7744140625
31,1597843941495652,-0.38232421875,-0.021240234375,-0.2117919921875,0.899169921875,-26.1875,35.75,23.8125,0.1875,-0.84326171875,0.76611328125
32,1597843941511566,-0.38238525390625,-0.01422119140625,-0.21063232421875,0.8995361328125,-7.625,32.0,20.3125,0.18017578125,-0.78759765625,0.8154296875
33,1597843941531566,-0.38055419921875,-0.008056640625,-0.21087646484375,0.90032958984375,0.75,35.375,14.4375,0.19873046875,-0.6591796875,0.74755859375
34,1597843941549676,-0.3812255859375,-0.001708984375,-0.21063232421875,0.900146484375,-15.5,32.25,16.5625,0.19384765625,-0.67041015625,0.77001953125
35,1597843941571671,-0.3826904296875,0.0047607421875,-0.20977783203125,0.89971923828125,-14.5625,29.9375,17.9375,0.16259765625,-0.7412109375,0.72265625
36,1597843941591670,-0.3814697265625,0.01007080078125,-0.208984375,0.900390625,1.8125,28.0625,17.3125,0.16455078125,-0.72705078125,0.736328125
37,1597843941608854,-0.37969970703125,0.01373291015625,-0.20782470703125,0.9013671875,8.3125,18.9375,15.4375,0.140625,-0.69140625,0.67919921875
38,1597843941630675,-0.379150390625,0.01641845703125,-0.206787109375,0.9017333984375,4.4375,14.8125,13.375,0.15625,-0.66796875,0.60302734375
39,1597843941652115,-0.37872314453125,0.01873779296875,-0.2060546875,0.902099609375,4.5,11.9375,9.9375,0.13037109375,-0.6865234375,0.61767578125
40,1597843941668086,-0.3782958984375,0.02056884765625,-0.2054443359375,0.90234375,3.6875,9.0625,7.3125,0.1142578125,-0.67822265625,0.63232421875
41,1597843941691010,-0.37884521484375,0.02215576171875,-0.204833984375,0.9022216796875,-2.4375,6.6875,6.5,0.1103515625,-0.65966796875,0.6279296875
42,1597843941712006,-0.38055419921875,0.0234375,-0.20416259765625,0.901611328125,-8.75,2.0,3.5625,0.076171875,-0.69873046875,0.64697265625
43,1597843941728060,-0.38201904296875,0.0240478515625,-0.2037353515625,0.90106201171875,-6.3125,-1.3125,0.125,0.0673828125,-0.7138671875,0.65673828125
44,1597843941751592,-0.38299560546875,0.0245361328125,-0.20379638671875,0.900634765625,-4.0,-0.5625,-2.25,0.06689453125,-0.71630859375,0.6689453125
45,1597843941772458,-0.3836669921875,0.02496337890625,-0.20404052734375,0.9002685546875,-4.9375,-0.5,-3.5625,0.0615234375,-0.72119140625,0.7236328125
46,1597843941788527,-0.38507080078125,0.025390625,-0.20458984375,0.8995361328125,-9.25,-0.125,-4.6875,0.0791015625,-0.73095703125,0.73486328125
47,1597843941811463,-0.3865966796875,0.025390625,-0.20526123046875,0.89874267578125,-9.5,-1.6875,-5.9375,0.0927734375,-0.76025390625,0.74609375
48,1597843941832459,-0.38702392578125,0.024658203125,-0.2061767578125,0.89837646484375,-2.125,-3.375,-8.25,0.09765625,-0.76220703125,0.75927734375
49,1597843941848115,-0.38671875,0.0234375,-0.20721435546875,0.8983154296875,1.9375,-4.5625,-8.9375,0.11181640625,-0.7490234375,0.76123046875
50,1597843941871243,-0.38616943359375,0.0220947265625,-0.208251953125,0.8983154296875,3.4375,-4.25,-8.125,0.12646484375,-0.74951171875,0.76953125
51,1597843941891822,-0.38543701171875,0.0211181640625,-0.208984375,0.89849853515625,3.1875,-3.625,-6.375,0.119140625,-0.74365234375,0.78955078125
52,1597843941909151,-0.384765625,0.02032470703125,-0.2093505859375,0.89874267578125,4.125,-3.75,-4.375,0.10888671875,-0.74951171875,0.76708984375
53,1597843941930811,-0.3834228515625,0.0191650390625,-0.20947265625,0.8992919921875,10.0,-4.4375,-3.1875,0.12109375,-0.73974609375,0.73779296875
54,1597843941952167,-0.38153076171875,0.01776123046875,-0.20953369140625,0.90008544921875,13.3125,-4.25,-1.4375,0.1455078125,-0.71337890625,0.72412109375
55,1597843941969019,-0.3798828125,0.01666259765625,-0.20965576171875,0.90081787109375,11.5,-2.1875,-0.8125,0.154296875,-0.68798828125,0.70361328125
56,1597843941991010,-0.3787841796875,0.0159912109375,-0.20977783203125,0.9012451171875,8.0,0.0,0.375,0.166015625,-0.69091796875,0.70263671875
57,1597843942012007,-0.37799072265625,0.01568603515625,-0.20977783203125,0.901611328125,5.6875,0.875,1.4375,0.16162109375,-0.69140625,0.70458984375
58,1597843942028152,-0.37762451171875,0.01556396484375,-0.20977783203125,0.9017333984375,2.9375,1.125,0.9375,0.15673828125,-0.68798828125,0.703125
59,1597843942051016,-0.3775634765625,0.015625,-0.20989990234375,0.9017333984375,0.9375,1.875,0.5,0.15087890625,-0.6904296875,0.6982421875
60,1597843942072341,-0.37774658203125,0.01593017578125,-0.21002197265625,0.901611328125,-0.6875,1.875,0.0,0.134765625,-0.69189453125,0.70556640625
61,1597843942089014,-0.37786865234375,0.01629638671875,-0.2103271484375,0.9014892578125,-1.625,2.1875,-0.75,0.1298828125,-0.689453125,0.71533203125
62,1597843942111018,-0.3782958984375,0.0167236328125,-0.2103271484375,0.90130615234375,-2.8125,1.5625,0.0625,0.1220703125,-0.705078125,0.72314453125
63,1597843942132021,-0.378662109375,0.01708984375,-0.21044921875,0.901123046875,-2.375,1.4375,-0.375,0.12744140625,-0.70068359375,0.7177734375
64,1597843942148361,-0.3790283203125,0.017333984375,-0.2105712890625,0.90093994140625,-2.4375,1.0625,-0.5625,0.1259765625,-0.69970703125,0.71337890625
65,1597843942171592,-0.3795166015625,0.01739501953125,-0.2108154296875,0.90069580078125,-3.4375,-0.0625,-1.3125,0.1279296875,-0.7001953125,0.7265625
66,1597843942193354,-0.38018798828125,0.0174560546875,-0.2109375,0.90032958984375,-4.0625,-0.625,-1.5625,0.12451171875,-0.71435546875,0.73193359375
67,1597843942208354,-0.3804931640625,0.0174560546875,-0.2110595703125,0.90020751953125,-2.25,-0.5625,-1.1875,0.123046875,-0.71533203125,0.7412109375
68,1597843942231356,-0.3804931640625,0.0174560546875,-0.21099853515625,0.90020751953125,-1.3125,-1.125,-0.6875,0.11767578125,-0.70849609375,0.74755859375
69,1597843942253516,-0.38067626953125,0.0174560546875,-0.2109375,0.900146484375,-1.1875,-1.0625,-0.25,0.12109375,-0.712890625,0.73388671875
70,1597843942268512,-0.38067626953125,0.01739501953125,-0.2108154296875,0.90020751953125,0.0,-1.375,-0.0625,0.1201171875,-0.7158203125,0.73876953125
71,1597843942291515,-0.380615234375,0.01739501953125,-0.2108154296875,0.90020751953125,0.1875,-0.6875,-0.3125,0.12939453125,-0.7080078125,0.72900390625
72,1597843942313512,-0.380615234375,0.017333984375,-0.2108154296875,0.90020751953125,-0.5,-0.25,-0.3125,0.13916015625,-0.70751953125,0.73388671875
73,1597843942327507,-0.380615234375,0.017333984375,-0.2108154296875,0.90020751953125,-0.1875,0.25,-0.25,0.140625,-0.7119140625,0.72900390625
74,1597843942350507,-0.380615234375,0.017333984375,-0.2108154296875,0.90020751953125,0.3125,0.875,-0.3125,0.13818359375,-0.7177734375,0.7392578125
75,1597843942373508,-0.38067626953125,0.0174560546875,-0.2109375,0.900146484375,-0.5625,1.0,-0.125,0.1376953125,-0.716796875,0.734375
76,1597843942388085,-0.38067626953125,0.0174560546875,-0.2109375,0.900146484375,0.0625,0.875,0.1875,0.126953125,-0.712890625,0.72509765625
77,1597843942411564,-0.38043212890625,0.017578125,-0.21099853515625,0.9002685546875,1.5625,1.25,0.25,0.134765625,-0.7041015625,0.71630859375
78,1597843942433506,-0.3802490234375,0.0179443359375,-0.2110595703125,0.9002685546875,0.4375,2.1875,0.5625,0.13037109375,-0.7001953125,0.7177734375
79,1597843942448248,-0.38037109375,0.01824951171875,-0.211181640625,0.90020751953125,-0.875,2.125,0.1875,0.13427734375,-0.70654296875,0.71435546875
80,1597843942471459,-0.380615234375,0.01861572265625,-0.2113037109375,0.90008544921875,-1.5625,1.8125,-0.125,0.130859375,-0.70654296875,0.720703125
81,1597843942493253,-0.380859375,0.01904296875,-0.21136474609375,0.89990234375,-1.6875,1.6875,-0.25,0.11865234375,-0.7109375,0.7138671875
82,1597843942508256,-0.381103515625,0.01934814453125,-0.21148681640625,0.89984130859375,-1.3125,1.0,-0.375,0.1201171875,-0.70947265625,0.71533203125
83,1597843942531389,-0.381103515625,0.01934814453125,-0.21142578125,0.89984130859375,-0.3125,0.1875,-0.875,0.11376953125,-0.71484375,0.7216796875
84,1597843942553252,-0.381103515625,0.0194091796875,-0.21142578125,0.89984130859375,0.9375,0.0,-0.9375,0.11767578125,-0.7109375,0.7197265625
85,1597843942568251,-0.3814697265625,0.01947021484375,-0.21148681640625,0.899658203125,-1.4375,-0.5,-1.25,0.115234375,-0.716796875,0.71240234375
86,1597843942591248,-0.3818359375,0.01922607421875,-0.2115478515625,0.89947509765625,-1.4375,-1.6875,-1.25,0.125,-0.7158203125,0.71923828125
87,1597843942613367,-0.3819580078125,0.0189208984375,-0.21160888671875,0.8994140625,0.0,-2.0,-1.5,0.12451171875,-0.7255859375,0.7265625
88,1597843942628335,-0.382080078125,0.0184326171875,-0.211669921875,0.89935302734375,0.0625,-2.375,-1.5,0.13232421875,-0.71728515625,0.72314453125
89,1597843942651247,-0.38232421875,0.01800537109375,-0.2117919921875,0.89923095703125,-0.625,-2.25,-1.5,0.13330078125,-0.72314453125,0.72705078125
90,1597843942674264,-0.3824462890625,0.01763916015625,-0.2117919921875,0.89923095703125,-0.1875,-2.375,-1.25,0.1318359375,-0.72021484375,0.7333984375
91,1597843942694247,-0.38250732421875,0.01727294921875,-0.21160888671875,0.89923095703125,-0.1875,-2.75,-0.375,0.12841796875,-0.7236328125,0.73583984375
92,1597843942711247,-0.38238525390625,0.01690673828125,-0.2115478515625,0.8992919921875,1.0625,-1.75,-0.1875,0.13623046875,-0.71875,0.7333984375
93,1597843942733734,-0.382080078125,0.0166015625,-0.21136474609375,0.89947509765625,1.625,-2.1875,0.3125,0.13134765625,-0.720703125,0.7451171875
94,1597843942754247,-0.3818359375,0.016357421875,-0.21112060546875,0.899658203125,1.4375,-1.5625,0.75,0.13232421875,-0.71875,0.74267578125
95,1597843942771244,-0.3817138671875,0.016357421875,-0.21087646484375,0.8997802734375,0.75,-1.125,0.9375,0.125,-0.7216796875,0.74072265625
96,1597843942793244,-0.38140869140625,0.01641845703125,-0.21044921875,0.89996337890625,1.875,-1.25,1.375,0.119140625,-0.7236328125,0.74072265625
97,1597843942814283,-0.38092041015625,0.01629638671875,-0.21014404296875,0.9002685546875,2.6875,-1.1875,1.375,0.1240234375,-0.70849609375,0.73291015625
98,1597843942831252,-0.3804931640625,0.0162353515625,-0.20989990234375,0.9005126953125,2.5625,-0.8125,1.1875,0.126953125,-0.71435546875,0.7333984375
99,1597843942854256,-0.38018798828125,0.01629638671875,-0.20965576171875,0.90069580078125,1.625,-0.625,1.1875,0.12353515625,-0.70654296875,0.73046875
100,1597843942875631,-0.37994384765625,0.0162353515625,-0.20941162109375,0.90081787109375,2.125,-0.4375,1.1875,0.1298828125,-0.716796875,0.72705078125
