index,timestamp,orientation_x,orientation_y,orientation_z,orientation_w,gyroscope_x,gyroscope_y,gyroscope_z,acceleration_x,acceleration_y,acceleration_z
0,1597981742482773,-0.19561767578125,0.28778076171875,-0.82696533203125,0.441650390625,2.8125,-1.5625,3.5625,0.02978515625,-0.71875,0.76318359375
1,1597981742506772,-0.1951904296875,0.28729248046875,-0.82666015625,0.44268798828125,7.125,-2.9375,4.375,0.037109375,-0.7041015625,0.75341796875
2,1597981742526771,-0.19488525390625,0.2862548828125,-0.8267822265625,0.44329833984375,8.3125,-2.375,1.5,0.0595703125,-0.6865234375,0.76513671875
3,1597981742542772,-0.194580078125,0.28515625,-0.82708740234375,0.44354248046875,8.125,-1.1875,-0.1875,0.0751953125,-0.6650390625,0.7587890625
4,1597981742565773,-0.19415283203125,0.2843017578125,-0.82745361328125,0.443603515625,5.625,0.625,-0.6875,0.0771484375,-0.64794921875,0.765625
5,1597981742586771,-0.19378662109375,0.2840576171875,-0.8277587890625,0.443359375,1.125,2.1875,-1.1875,0.0791015625,-0.63720703125,0.77880859375
6,1597981742602772,-0.1937255859375,0.2847900390625,-0.82781982421875,0.44281005859375,-5.0,3.4375,-1.4375,0.07470703125,-0.63720703125,0.78271484375
7,1597981742625773,-0.1939697265625,0.2862548828125,-0.82763671875,0.44207763671875,-9.25,4.125,-1.5,0.07861328125,-0.65283203125,0.77880859375
8,1597981742645771,-0.1942138671875,0.28802490234375,-0.82733154296875,0.44146728515625,-9.75,3.4375,-0.8125,0.06396484375,-0.67626953125,0.7841796875
9,1597981742662772,-0.19427490234375,0.28900146484375,-0.8271484375,0.441162109375,-5.25,2.1875,-0.3125,0.06396484375,-0.6845703125,0.79150390625
10,1597981742685773,-0.19427490234375,0.289306640625,-0.82708740234375,0.44097900390625,-1.75,0.5625,-0.625,0.05859375,-0.6767578125,0.7861328125
11,1597981742707771,-0.19427490234375,0.289306640625,-0.82708740234375,0.44097900390625,0.9375,0.4375,-0.5,0.0693359375,-0.6650390625,0.79248046875
12,1597981742722772,-0.19439697265625,0.28912353515625,-0.8272705078125,0.4407958984375,-0.75,-0.1875,-1.375,0.07666015625,-0.65234375,0.78466796875
13,1597981742745773,-0.1949462890625,0.28973388671875,-0.8270263671875,0.44061279296875,-4.75,-0.875,-0.5625,0.06884765625,-0.66064453125,0.76611328125
14,1597981742767772,-0.1956787109375,0.290771484375,-0.8265380859375,0.4405517578125,-6.8125,-1.625,0.5625,0.06201171875,-0.6865234375,0.7724609375
15,1597981742782773,-0.196044921875,0.291259765625,-0.826171875,0.44061279296875,-3.125,-1.0625,1.0625,0.068359375,-0.68505859375,0.76904296875
16,1597981742805779,-0.196044921875,0.291259765625,-0.826171875,0.44061279296875,0.375,0.1875,-0.4375,0.0732421875,-0.67529296875,0.7763671875
17,1597981742827773,-0.19586181640625,0.2911376953125,-0.82635498046875,0.44049072265625,1.0,0.5625,-0.9375,0.06201171875,-0.6650390625,0.76953125
18,1597981742842773,-0.19586181640625,0.29119873046875,-0.82635498046875,0.44049072265625,-0.625,0.875,-0.1875,0.06298828125,-0.66796875,0.765625
19,1597981742864773,-0.1959228515625,0.29156494140625,-0.82623291015625,0.4404296875,-2.25,0.0625,-0.375,0.05712890625,-0.67529296875,0.77783203125
20,1597981742887772,-0.196044921875,0.2916259765625,-0.826171875,0.4404296875,-1.5,-1.0625,-0.4375,0.0595703125,-0.6865234375,0.79833984375
21,1597981742901772,-0.1956787109375,0.29107666015625,-0.82647705078125,0.4403076171875,1.3125,1.0,-1.0,0.0751953125,-0.646484375,0.80126953125
22,1597981742925800,-0.19500732421875,0.290771484375,-0.82720947265625,0.4395751953125,-2.25,5.5,-3.1875,0.08984375,-0.58251953125,0.80224609375
23,1597981742947774,-0.1954345703125,0.29248046875,-0.82757568359375,0.4375,-19.125,6.75,-8.5,0.08154296875,-0.5537109375,0.814453125
24,1597981742968783,-0.19805908203125,0.299072265625,-0.82598876953125,0.434814453125,-46.6875,5.375,-6.75,0.0390625,-0.611328125,0.74462890625
25,1597981742985772,-0.20257568359375,0.30731201171875,-0.8232421875,0.43218994140625,-56.5625,1.25,-3.3125,0.08544921875,-0.72705078125,0.74951171875
26,1597981743007775,-0.20703125,0.31402587890625,-0.8209228515625,0.4296875,-46.375,-0.6875,-4.4375,0.1142578125,-0.77197265625,0.7294921875
27,1597981743028862,-0.20916748046875,0.3177490234375,-0.81964111328125,0.42840576171875,-22.5625,0.1875,-2.5625,0.07861328125,-0.7978515625,0.72509765625
28,1597981743044936,-0.2098388671875,0.31878662109375,-0.81915283203125,0.42816162109375,-2.375,-1.125,-0.8125,0.0595703125,-0.78125,0.68115234375
29,1597981743068940,-0.21026611328125,0.31890869140625,-0.81878662109375,0.42852783203125,2.5,-3.8125,0.5625,0.046875,-0.759765625,0.6728515625
30,1597981743089021,-0.2105712890625,0.31854248046875,-0.81842041015625,0.42950439453125,5.9375,-5.5625,3.0625,0.05029296875,-0.77001953125,0.6875
31,1597981743105010,-0.2098388671875,0.31683349609375,-0.81866455078125,0.43060302734375,13.0,-3.625,2.5625,0.04931640625,-0.74951171875,0.728515625
32,1597981743128016,-0.20867919921875,0.31451416015625,-0.81964111328125,0.43096923828125,15.3125,-0.75,-2.3125,0.05029296875,-0.69677734375,0.7314453125
33,1597981743142011,-0.2080078125,0.31341552734375,-0.82049560546875,0.43048095703125,5.75,1.5625,-4.8125,0.0634765625,-0.67626953125,0.73583984375
34,1597981743165011,-0.20849609375,0.31427001953125,-0.820556640625,0.429443359375,-7.5625,2.125,-4.8125,0.07568359375,-0.68408203125,0.7294921875
35,1597981743188014,-0.20941162109375,0.31634521484375,-0.82012939453125,0.4283447265625,-13.0,1.8125,-3.5,0.07080078125,-0.73193359375,0.72119140625
36,1597981743202011,-0.20989990234375,0.31768798828125,-0.81988525390625,0.4276123046875,-6.8125,1.75,-2.4375,0.068359375,-0.748046875,0.72119140625
37,1597981743225013,-0.20965576171875,0.317626953125,-0.82025146484375,0.42706298828125,0.9375,2.5625,-3.1875,0.07421875,-0.7265625,0.73388671875
38,1597981743248014,-0.20928955078125,0.3172607421875,-0.82080078125,0.42645263671875,1.8125,2.8125,-3.875,0.07763671875,-0.70263671875,0.73193359375
39,1597981743269011,-0.20928955078125,0.31793212890625,-0.82080078125,0.4259033203125,-4.5625,2.125,-2.0625,0.06640625,-0.70263671875,0.7294921875
40,1597981743285019,-0.2098388671875,0.31915283203125,-0.820556640625,0.42529296875,-8.4375,0.6875,-2.375,0.06640625,-0.72119140625,0.72802734375
41,1597981743308014,-0.2103271484375,0.319580078125,-0.82061767578125,0.42449951171875,-4.0625,0.9375,-3.4375,0.08984375,-0.7197265625,0.7265625
42,1597981743329019,-0.21063232421875,0.3197021484375,-0.8209228515625,0.4237060546875,-1.75,1.375,-4.125,0.09228515625,-0.72021484375,0.716796875
43,1597981743345013,-0.2108154296875,0.31988525390625,-0.82098388671875,0.42340087890625,-0.8125,0.5625,-1.5,0.08349609375,-0.7265625,0.7158203125
44,1597981743368016,-0.2108154296875,0.31988525390625,-0.82098388671875,0.42340087890625,0.1875,-0.25,-0.5,0.07421875,-0.73583984375,0.7236328125
45,1597981743389010,-0.2105712890625,0.31915283203125,-0.8212890625,0.4234619140625,5.0,-0.125,-0.6875,0.0810546875,-0.7236328125,0.72509765625
46,1597981743405011,-0.20989990234375,0.3179931640625,-0.8218994140625,0.4234619140625,7.25,0.875,-1.5625,0.0751953125,-0.70947265625,0.73583984375
47,1597981743428014,-0.20953369140625,0.3175048828125,-0.822265625,0.42333984375,3.1875,1.0625,-1.625,0.072265625,-0.6982421875,0.71923828125
48,1597981743449019,-0.209716796875,0.31787109375,-0.82220458984375,0.423095703125,-3.3125,0.1875,-1.0,0.072265625,-0.70751953125,0.7275390625
49,1597981743465010,-0.2100830078125,0.318603515625,-0.8218994140625,0.4229736328125,-4.3125,-0.25,0.0625,0.07470703125,-0.73291015625,0.724609375
50,1597981743488014,-0.2100830078125,0.31866455078125,-0.82183837890625,0.4229736328125,-0.5,0.0,0.25,0.07421875,-0.72900390625,0.720703125
51,1597981743509019,-0.21002197265625,0.31842041015625,-0.8218994140625,0.423095703125,2.1875,-0.3125,0.0625,0.07666015625,-0.7333984375,0.72802734375
52,1597981743525018,-0.2099609375,0.31781005859375,-0.8221435546875,0.42315673828125,3.125,-0.5625,-0.3125,0.09033203125,-0.71630859375,0.7294921875
53,1597981743548027,-0.2099609375,0.3177490234375,-0.8221435546875,0.42315673828125,0.9375,0.1875,-0.6875,0.0791015625,-0.7080078125,0.73291015625
54,1597981743569011,-0.20989990234375,0.3177490234375,-0.8221435546875,0.42315673828125,-1.0,0.0625,-0.25,0.0703125,-0.71240234375,0.73193359375
55,1597981743585011,-0.2100830078125,0.3179931640625,-0.82208251953125,0.4229736328125,-1.8125,-0.125,-0.6875,0.07666015625,-0.71923828125,0.73095703125
56,1597981743608014,-0.2100830078125,0.3179931640625,-0.82208251953125,0.42303466796875,-0.125,-1.0,0.5625,0.06982421875,-0.73095703125,0.7294921875
57,1597981743629019,-0.2098388671875,0.3172607421875,-0.82232666015625,0.42315673828125,4.5625,-0.1875,0.125,0.08740234375,-0.7197265625,0.73095703125
58,1597981743645010,-0.20953369140625,0.31683349609375,-0.82257080078125,0.4232177734375,2.875,0.4375,-0.625,0.07470703125,-0.7119140625,0.7294921875
59,1597981743668016,-0.20953369140625,0.31683349609375,-0.82257080078125,0.4232177734375,0.5625,-0.25,0.625,0.076171875,-0.71533203125,0.72509765625
60,1597981743690019,-0.20953369140625,0.31683349609375,-0.82257080078125,0.4232177734375,-0.4375,-0.0625,0.3125,0.08056640625,-0.7158203125,0.7294921875
61,1597981743705090,-0.20953369140625,0.31689453125,-0.82257080078125,0.4232177734375,0.3125,0.0,0.3125,0.06884765625,-0.72314453125,0.73095703125
62,1597981743728100,-0.20928955078125,0.3165283203125,-0.82275390625,0.4232177734375,2.0,0.5625,-0.25,0.08544921875,-0.712890625,0.73583984375
63,1597981743750185,-0.20928955078125,0.31646728515625,-0.82275390625,0.4232177734375,0.625,0.75,-0.6875,0.07958984375,-0.70751953125,0.732421875
64,1597981743765187,-0.20928955078125,0.3165283203125,-0.82275390625,0.4232177734375,-0.875,0.1875,0.0,0.06982421875,-0.716796875,0.728515625
65,1597981743788197,-0.20928955078125,0.316650390625,-0.82275390625,0.42303466796875,-1.125,0.6875,-0.6875,0.0771484375,-0.7138671875,0.728515625
66,1597981743810185,-0.2093505859375,0.3170166015625,-0.8226318359375,0.42303466796875,-1.25,-0.0625,0.0625,0.06787109375,-0.7294921875,0.7255859375
67,1597981743825195,-0.20928955078125,0.31671142578125,-0.82269287109375,0.42315673828125,2.0625,-0.5,0.5,0.08056640625,-0.72314453125,0.73095703125
68,1597981743848194,-0.20904541015625,0.31622314453125,-0.8228759765625,0.42327880859375,2.9375,0.0,0.0625,0.0830078125,-0.7158203125,0.7373046875
69,1597981743870185,-0.20892333984375,0.3160400390625,-0.8228759765625,0.4234619140625,1.625,-0.4375,0.5,0.07177734375,-0.7158203125,0.7314453125
70,1597981743885185,-0.20892333984375,0.31597900390625,-0.82293701171875,0.4234619140625,-0.125,-0.5,0.1875,0.0791015625,-0.7109375,0.73291015625
71,1597981743908186,-0.2091064453125,0.3162841796875,-0.82269287109375,0.42352294921875,-1.75,-0.5625,0.5625,0.0751953125,-0.7197265625,0.72607421875
72,1597981743930185,-0.2091064453125,0.31634521484375,-0.82269287109375,0.42352294921875,-0.1875,-0.625,0.25,0.0732421875,-0.728515625,0.73291015625
73,1597981743944299,-0.20904541015625,0.31622314453125,-0.82275390625,0.423583984375,1.0625,-0.5,-0.25,0.07080078125,-0.72216796875,0.7314453125
74,1597981743968297,-0.20892333984375,0.31597900390625,-0.82281494140625,0.42364501953125,1.125,-0.375,-0.25,0.07177734375,-0.7109375,0.73388671875
75,1597981743990266,-0.20892333984375,0.31597900390625,-0.82281494140625,0.42364501953125,-0.75,-0.375,-0.625,0.07373046875,-0.7119140625,0.73291015625
76,1597981744004274,-0.20916748046875,0.316162109375,-0.82281494140625,0.4234619140625,-1.625,-0.125,-0.6875,0.0869140625,-0.71728515625,0.7314453125
77,1597981744028276,-0.2093505859375,0.3165283203125,-0.8226318359375,0.4234619140625,-1.875,-0.4375,-0.1875,0.068359375,-0.72119140625,0.72119140625
78,1597981744050276,-0.2093505859375,0.31646728515625,-0.8226318359375,0.4234619140625,-0.1875,-0.5,-0.125,0.08447265625,-0.7119140625,0.73583984375
79,1597981744064294,-0.20953369140625,0.3162841796875,-0.82269287109375,0.42340087890625,0.0625,-1.1875,-0.6875,0.0830078125,-0.71337890625,0.7314453125
80,1597981744087355,-0.21038818359375,0.31591796875,-0.822509765625,0.42364501953125,-1.75,-6.3125,-1.0,0.06689453125,-0.71044921875,0.7578125
81,1597981744110356,-0.21234130859375,0.3160400390625,-0.82183837890625,0.42376708984375,-7.3125,-10.125,-1.25,0.08203125,-0.6923828125,0.716796875
82,1597981744124356,-0.2139892578125,0.3170166015625,-0.82098388671875,0.42388916015625,-10.0625,-6.0,1.5,0.095703125,-0.72265625,0.7265625
83,1597981744147432,-0.21478271484375,0.31805419921875,-0.8203125,0.424072265625,-6.8125,-3.0625,1.75,0.07568359375,-0.74267578125,0.72412109375
84,1597981744170434,-0.21514892578125,0.3182373046875,-0.820068359375,0.42425537109375,-1.0625,-2.4375,0.125,0.0712890625,-0.74951171875,0.7265625
85,1597981744191442,-0.21539306640625,0.317626953125,-0.8201904296875,0.42431640625,2.5,-2.625,-0.875,0.087890625,-0.72119140625,0.72705078125
86,1597981744207438,-0.2158203125,0.3173828125,-0.820068359375,0.4244384765625,-0.25,-2.6875,-0.125,0.0908203125,-0.71044921875,0.71337890625
87,1597981744230436,-0.21636962890625,0.31768798828125,-0.81976318359375,0.424560546875,-2.875,-2.1875,0.75,0.08984375,-0.7197265625,0.71826171875
88,1597981744251441,-0.21673583984375,0.31805419921875,-0.8194580078125,0.4246826171875,-2.625,-1.4375,0.875,0.08349609375,-0.73388671875,0.72021484375
89,1597981744267443,-0.21673583984375,0.31805419921875,-0.8194580078125,0.4246826171875,0.625,-0.75,-0.125,0.08837890625,-0.736328125,0.72607421875
90,1597981744290436,-0.2166748046875,0.3177490234375,-0.81964111328125,0.4246826171875,2.5625,-0.3125,-0.6875,0.08740234375,-0.72998046875,0.71728515625
91,1597981744311522,-0.2166748046875,0.3175048828125,-0.81976318359375,0.42462158203125,1.3125,-0.3125,-0.8125,0.08740234375,-0.72216796875,0.7177734375
92,1597981744327599,-0.2166748046875,0.3175048828125,-0.81976318359375,0.42462158203125,0.0,0.0,-0.5,0.0888671875,-0.72021484375,0.71826171875
93,1597981744350610,-0.2166748046875,0.3175048828125,-0.8197021484375,0.42462158203125,-0.5625,0.1875,-0.6875,0.08544921875,-0.72314453125,0.71435546875
94,1597981744371608,-0.2166748046875,0.3175048828125,-0.8197021484375,0.42462158203125,0.25,0.125,-0.25,0.08349609375,-0.72509765625,0.72509765625
95,1597981744387599,-0.2166748046875,0.3175048828125,-0.8197021484375,0.42462158203125,-0.6875,-0.4375,-0.625,0.0849609375,-0.72021484375,0.72265625
96,1597981744410609,-0.2166748046875,0.3175048828125,-0.81976318359375,0.42462158203125,-0.625,-0.1875,-0.0625,0.0859375,-0.7216796875,0.72412109375
97,1597981744431697,-0.2166748046875,0.31768798828125,-0.8197021484375,0.424560546875,-1.3125,0.0625,-0.3125,0.08447265625,-0.71728515625,0.72265625
98,1597981744446796,-0.2166748046875,0.31768798828125,-0.8197021484375,0.424560546875,-1.0,-0.5,-0.0625,0.08203125,-0.73046875,0.72119140625
99,1597981744470792,-0.21673583984375,0.31768798828125,-0.8197021484375,0.42449951171875,0.9375,0.0,-0.375,0.0986328125,-0.71875,0.72119140625
